"Time (s)","Linear Acceleration x (m/s^2)","Linear Acceleration y (m/s^2)","Linear Acceleration z (m/s^2)","Absolute acceleration (m/s^2)"
0.000000000E0,-1.330700636E0,4.480136395E0,-2.204649925E0,5.167481745E0
1.324423500E-2,-2.101914883E-1,5.540143490E0,-3.554276228E-1,5.555510701E0
3.237923500E-2,-1.702649117E0,4.024195671E0,-1.454635382E0,4.605337003E0
5.151423500E-2,-8.191668987E-1,3.905907154E0,1.492411494E-1,3.993672248E0
7.064923500E-2,-4.131702185E-1,2.408973217E0,-4.664081931E-1,2.488252036E0
8.977090200E-2,-8.482876420E-2,7.764463425E-1,-1.179867029E0,1.414973869E0
1.089192350E-1,1.577237129E0,-4.771528244E-1,-2.468480468E-1,1.666218995E0
1.280542350E-1,3.350602150E0,5.258998871E-1,-4.068104029E-1,3.415933278E0
1.471759020E-1,7.398713589E0,2.428474426E-1,1.811236382E0,7.621057333E0
1.663242350E-1,8.159543991E0,-1.713783264E0,1.339655042E0,8.444518154E0
1.854592350E-1,3.859118938E0,1.204342842E0,-2.621009111E0,4.817979807E0
2.045809020E-1,-1.337101460E-1,4.795310974E0,3.882166862E0,6.171232072E0
2.237292350E-1,4.011272907E0,1.422133446E0,8.958364487E0,9.917916523E0
2.428642350E-1,3.630108595E0,3.986822128E0,6.021251202E0,8.082567978E0
2.619859020E-1,1.108860016E0,7.514635086E0,2.388097048E0,7.962557285E0
2.811342350E-1,-2.704225540E0,-1.368484688E1,3.273046017E-1,1.395331495E1
3.002692350E-1,-5.371470928E0,-4.033866501E1,1.754405022E0,4.073252425E1
3.193910060E-1,-6.494550705E0,-2.029890060E1,-6.847612381E0,2.238558353E1
3.385393400E-1,-4.480411530E0,-6.551059723E0,-5.464760780E0,9.636082262E0
3.576743400E-1,-1.199698925E0,-1.122755051E0,-2.912062645E0,3.343645505E0
3.767960060E-1,1.738822341E0,-8.053398132E-2,-4.302149773E0,4.640956962E0
3.959443400E-1,3.767093420E0,-1.154336929E-1,-3.496477604E0,5.140979810E0
4.150793400E-1,3.503934860E0,4.130544662E-1,-2.455690861E0,4.298673179E0
4.342144440E-1,2.681059122E0,7.193651199E-1,-1.179457188E0,3.016070863E0
4.533361100E-1,2.067400217E0,2.041771889E0,3.244156837E0,4.355172751E0
4.724844440E-1,7.409415841E-1,3.416007519E0,4.116182804E0,5.400098395E0
4.916062150E-1,3.286086321E-1,3.804204941E0,1.366101027E0,4.055390349E0
5.107545480E-1,-3.112700582E-1,5.507188320E0,1.098143339E0,5.624227150E0
5.298762150E-1,-9.746026248E-2,8.066206932E0,-5.371408463E-1,8.084659119E0
5.490245480E-1,-7.017751038E-2,9.222385406E0,-9.887890816E-1,9.275506526E0
5.681596520E-1,3.993406296E-1,9.063002586E0,-1.926988125E0,9.274199267E0
5.872946520E-1,9.174525738E-1,7.393086433E0,7.543781996E-1,7.487892407E0
6.064164230E-1,2.287477255E0,2.764095306E0,3.285579681E0,4.864957235E0
6.255647560E-1,5.378566742E0,-4.736432076E0,6.366022110E0,9.585875365E0
6.446997560E-1,2.417694330E0,-1.310862637E1,4.611692429E0,1.410492957E1
6.638215270E-1,5.073602200E-1,-1.177179813E1,6.074492931E-1,1.179837448E1
6.829698600E-1,-1.788954020E0,-6.606759071E0,-3.363703251E0,7.626540597E0
7.021049650E-1,-4.718370438E0,-1.183365536E1,-6.207982063E0,1.417171338E1
7.212266310E-1,-5.672022343E0,-6.230561256E0,-5.033144474E0,9.814493075E0
7.403750690E-1,-4.567660332E0,2.298748493E0,-1.174339771E0,5.246602657E0
7.595100690E-1,-3.412483454E0,4.913440228E0,8.489146233E-1,6.042151457E0
7.786318400E-1,-2.576346159E0,4.593448639E-1,1.751720905E-1,2.622831008E0
7.977801730E-1,-2.321663141E0,-5.277921677E0,-2.111515999E0,6.140445976E0
8.169152770E-1,-3.274278164E0,-6.180734634E0,-1.635080934E0,7.183026366E0
8.360502770E-1,-3.105409861E0,-1.923849106E0,1.117003679E0,3.820008247E0
8.551853810E-1,-1.264498830E0,1.438862801E0,1.570657372E0,2.477145137E0
8.743070480E-1,-1.917077303E-1,3.568705559E0,1.754465461E0,3.981276211E0
8.934554850E-1,4.277625084E-1,4.903857231E0,2.164732456E0,5.377440201E0
9.125905900E-1,8.276621103E-1,5.637404442E0,1.476354480E0,5.885998298E0
9.317255900E-1,8.619193435E-1,6.682189941E0,1.866879463E-1,6.740134995E0
9.508606940E-1,7.908495069E-1,7.563706398E0,-2.004100680E-1,7.607579222E0
9.699957980E-1,1.010683775E-1,7.720571518E0,-1.513004303E-2,7.721247846E0
9.891307980E-1,-8.456313610E-2,6.143704414E0,1.690884590E0,6.372703159E0
1.008252569E0,1.217594981E0,3.528528690E0,1.360375285E0,3.972867123E0
1.027401006E0,1.214052677E0,2.077897549E0,1.378592014E0,2.773463190E0
1.046536006E0,9.277528524E-1,1.858301163E-1,3.676198959E0,3.796010666E0
1.065657777E0,7.379096746E-1,-1.656538010E0,3.861388206E0,4.266022474E0
1.084806215E0,1.660114527E0,-4.262889862E0,3.989365578E0,6.069863914E0
1.103941215E0,3.668049574E0,-6.091450691E0,4.260806084E0,8.289440734E0
1.123076319E0,4.968404770E0,-6.342346191E0,3.570142269E0,8.812282167E0
1.142211423E0,5.667081833E0,-4.599941254E0,2.355623484E0,7.669696085E0
1.161333194E0,6.323637486E0,-2.923645020E0,-8.088097572E-1,7.013577152E0
1.180481631E0,3.573039055E0,3.246202469E-1,-1.962781429E0,4.089559552E0
1.199616631E0,-9.916744232E-1,9.294872284E-1,-2.612282515E0,2.944721482E0
1.218738402E0,-3.568266392E0,-7.266178131E-1,-6.339108944E0,7.310595098E0
1.237886840E0,-4.490844727E0,-2.448690414E0,-8.863708496E0,1.023372363E1
1.257021944E0,-4.684592247E0,-5.812808037E0,-4.528367996E0,8.731566784E0
1.276143715E0,-4.921599388E0,-9.861958504E0,-7.389855385E-2,1.102206093E1
1.295292152E0,-5.344954491E0,-8.300759315E0,-1.882927775E0,1.005069951E1
1.314413819E0,-3.143017292E0,-3.108187675E0,-3.072818756E0,5.383456458E0
1.333562256E0,6.402992010E-1,-1.540119171E0,-2.738460541E0,3.206417980E0
1.352697360E0,2.784603596E0,3.001565456E0,-7.285789251E-1,4.158634346E0
1.371819131E0,3.825196266E0,5.457427979E0,-7.199168205E-2,6.664895304E0
1.390967569E0,3.710968494E0,6.561388016E0,1.989145041E0,7.796139933E0
1.410102673E0,2.989414930E0,7.926575184E0,1.984395027E0,8.700863141E0
1.429237777E0,1.979691386E0,8.299210548E0,5.171984434E-1,8.547722968E0
1.448372881E0,1.291627288E0,8.474821091E0,-3.583478928E-2,8.572757882E0
1.467507985E0,3.176001310E-1,8.879175186E0,9.142596722E-1,8.931768726E0
1.486629756E0,5.695803761E-1,7.010058403E0,3.131649017E0,7.698867851E0
1.505778194E0,1.042710185E0,3.345341206E0,2.230080366E0,4.153529915E0
1.524913298E0,2.593735933E0,-1.966896057E-1,-7.451001406E-1,2.705795098E0
1.544035069E0,2.616434336E0,-5.124138832E0,-3.021891594E0,6.498796520E0
1.563183506E0,1.709961176E0,-1.076922226E1,-8.947604895E-1,1.094078204E1
1.582318610E0,5.026570559E-1,-1.057679653E1,1.595657587E0,1.070828708E1
1.601440381E0,1.373630285E0,-3.129650116E0,4.940375328E0,6.007401967E0
1.620588819E0,2.123933315E0,-1.942715645E0,2.914203644E0,4.096073691E0
1.639723923E0,-1.388718843E0,-7.883078575E0,-3.620233059E0,8.785075711E0
1.658845694E0,-7.685132980E0,-1.071294212E1,-7.574151039E0,1.520513603E1
1.677994235E0,-8.451354980E0,-2.731084824E-1,-1.589030743E0,8.603778702E0
1.697129340E0,-5.114447117E0,2.236342907E0,-1.218010426E0,5.713348257E0
1.716251110E0,-3.558249950E0,-9.439058304E-1,-9.839994907E-1,3.810558479E0
1.735399548E0,-2.765198946E0,-4.239984512E0,-7.571813464E-1,5.118311974E0
1.754534652E0,-1.814409494E0,-4.203607559E0,3.450092971E-1,4.591451812E0
1.773669756E0,-1.216887236E0,-1.231486320E0,5.918635428E-2,1.732303705E0
1.792804860E0,-2.334334850E-1,1.379190445E0,1.850643381E-2,1.398928148E0
1.811926631E0,9.734427929E-2,3.332660198E0,1.449647546E0,3.635598701E0
1.831075173E0,3.698349595E-1,5.228000164E0,2.170001030E0,5.672536301E0
1.850210277E0,5.612869859E-1,6.009818554E0,8.369973898E-1,6.093728478E0
1.869345381E0,4.160615206E-1,6.566888809E0,3.786974251E-1,6.590944360E0
1.888480485E0,9.086637497E-1,6.675173759E0,1.249060631E-1,6.737894037E0
1.907615590E0,9.360968471E-1,6.664475918E0,4.335484505E-1,6.743847628E0
1.926750694E0,9.886634350E-1,5.874413013E0,7.369973660E-1,6.002445232E0
1.945885902E0,1.083853602E0,4.190479279E0,9.842742682E-1,4.438879481E0
1.965021006E0,2.306884527E-1,2.658545494E0,1.752236843E0,3.192399609E0
1.984142777E0,-4.776570797E-1,1.155501366E0,2.242893457E0,2.567861124E0
2.003291215E0,-4.054501057E-1,3.662309647E-1,3.169093132E0,3.215846107E0
2.022426319E0,5.070637465E-1,-8.746271133E-1,3.354421616E0,3.503459805E0
2.041548194E0,1.521055579E0,-2.947760582E0,4.355835915E0,5.475053337E0
2.060696631E0,2.428369045E0,-5.621955872E0,5.478286266E0,8.216750237E0
2.079831735E0,3.432353020E0,-7.678556442E0,4.949989796E0,9.759286617E0
2.098953506E0,4.585099697E0,-6.499243736E0,1.754840016E0,8.145107234E0
2.118101944E0,5.386628151E0,-4.121157646E0,-1.136037707E0,6.876793210E0
2.137237048E0,4.312233448E0,-1.033566475E0,-3.723385572E0,5.790269172E0
2.156358923E0,-2.101957798E-2,9.296493530E-1,-3.538150549E0,3.658305489E0
2.175507360E0,-2.300179958E0,-6.582250595E-1,-5.264841080E0,5.782961150E0
2.194642465E0,-3.820172787E0,-2.972002983E0,-6.524267673E0,8.123582370E0
2.213764235E0,-5.487124443E0,-8.452298164E0,-3.006217480E0,1.051604595E1
2.232912777E0,-6.093291283E0,-1.220794106E1,-1.035820127E0,1.368338214E1
2.252047881E0,-4.662271976E0,-4.798732758E0,-4.252929688E0,7.927927030E0
2.271169652E0,3.885948658E-1,-9.777870178E-1,-3.490309477E0,3.645453835E0
2.290318090E0,2.752115726E0,-8.419418335E-2,-2.490430117E0,3.712609837E0
2.309453194E0,3.168948889E0,3.635455132E0,2.123126984E-1,4.827405903E0
2.328575069E0,2.047924995E0,5.945195198E0,8.299018145E-1,6.342560977E0
2.347723506E0,1.193993449E0,8.023297310E0,1.485744715E0,8.246596718E0
2.366858610E0,6.265360117E-1,8.147826195E0,1.624643803E-1,8.173494586E0
2.385993715E0,1.306021810E-1,9.220213890E0,5.823254585E-2,9.221322689E0
2.405128819E0,4.161401987E-1,8.513455391E0,-5.959447026E-1,8.544427743E0
2.424264027E0,1.467754960E0,6.857539177E0,-1.081425309E0,7.095747239E0
2.443385798E0,2.642405510E0,5.553595066E0,4.511396885E-1,6.166705121E0
2.462534235E0,3.291595936E0,3.097784996E0,2.083980322E0,4.977333590E0
2.481669340E0,3.781173468E0,-1.095741272E0,3.409068108E0,5.207654663E0
2.500791110E0,4.324252605E0,-8.551492691E0,1.938863277E0,9.776828660E0
2.519939652E0,1.718562126E0,-1.475234604E1,-5.143007040E-1,1.486101190E1
2.539074756E0,-1.788426876E0,-7.358688354E0,5.497063637E0,9.357695957E0
2.558196527E0,-3.802375793E-1,5.203981400E-1,5.162302017E0,5.202379932E0
2.577344965E0,1.682943106E0,-1.520440102E0,-1.516498327E-1,2.273110924E0
2.596480069E0,-1.524701715E-1,-1.090361977E1,-9.103697777E0,1.420526256E1
2.615601944E0,-6.913353443E0,-5.566118240E0,-6.947085381E0,1.127111899E1
2.634750381E0,-8.127228737E0,1.250264168E0,-2.604495883E-1,8.226958212E0
2.653872152E0,-6.837589264E0,2.360200882E-1,-9.430459142E-2,6.842311435E0
2.673020590E0,-4.247276306E0,-3.046978951E0,6.914436817E-3,5.227187060E0
2.692155694E0,-1.517138958E0,-4.699241638E0,6.524083018E-2,4.938505741E0
2.711290902E0,-3.387080431E-1,-3.753656387E0,4.851070046E-2,3.769219110E0
2.730412673E0,3.932060003E-1,-1.309992790E0,-9.835519195E-1,1.684656181E0
2.749561110E0,1.049653649E0,2.140326023E0,1.199880093E-1,2.386873560E0
2.768696215E0,1.463921368E-1,4.947021961E0,9.298008680E-1,5.035770705E0
2.787831319E0,-5.663318038E-1,6.158516407E0,1.545457840E0,6.374676147E0
2.806966423E0,-8.716416955E-1,6.987570763E0,1.123891711E0,7.130851070E0
2.826101631E0,-2.171537876E0,8.300547600E0,1.135382771E0,8.654695907E0
2.845236735E0,-1.494937658E0,8.900516510E0,6.991956234E-1,9.052232170E0
2.864371840E0,-8.195000887E-1,8.115116119E0,9.783286452E-1,8.214853435E0
2.883493610E0,-3.193312883E-1,6.190752983E0,1.040134788E0,6.285640409E0
2.902642048E0,-2.989279032E-1,4.521864891E0,6.099204421E-1,4.572594770E0
2.921777152E0,-1.124521852E0,3.177758217E0,1.798795223E0,3.820780147E0
2.940899027E0,-1.869848967E-1,8.665218353E-1,2.339664459E0,2.501969869E0
2.960047465E0,1.526269555E0,-2.244061470E0,3.917900801E0,4.766052593E0
2.979182569E0,3.399219513E0,-7.024662018E0,8.403200150E0,1.146797029E1
2.998304340E0,4.999894142E0,-1.063591480E1,9.016765594E0,1.481295672E1
3.017452777E0,7.072630405E0,-8.176128387E0,1.152312517E0,1.087193637E1
3.036587985E0,8.255875587E0,-4.144750595E0,-2.680773973E0,9.618991023E0
3.055709756E0,7.904646873E0,-1.779593468E0,-2.531824112E0,8.488847297E0
3.074858194E0,2.643530369E0,7.255573273E-1,-2.761158049E-1,2.755163549E0
3.093993298E0,-1.072920561E0,-1.532649994E-1,-1.839238405E0,2.134817697E0
3.113115069E0,-2.852782011E0,-1.519862175E0,-9.054559708E0,9.614228920E0
3.132263506E0,-3.899605989E0,-4.000608444E0,-9.257826805E0,1.081291598E1
3.151398715E0,-4.483053684E0,-9.930630684E0,-2.698795319E0,1.122491391E1
3.170533819E0,-4.903110981E0,-9.972393036E0,1.348694324E0,1.119410990E1
3.189668923E0,-5.354199409E0,-3.813955307E0,-3.632046938E0,7.510357605E0
3.208804027E0,-1.331412911E0,-4.388008118E-1,-3.130258083E0,3.429828299E0
3.227925798E0,2.618030071E0,9.927616119E-1,-2.464982510E0,3.730388163E0
3.247074235E0,3.570621490E0,4.655221462E0,-5.824739933E-1,5.895735802E0
3.266209444E0,3.867587328E0,8.208948135E0,8.770145178E-1,9.116699825E0
3.285344548E0,3.290970802E0,8.516253471E0,2.675919771E0,9.514074239E0
3.304479652E0,1.519180059E0,8.032492638E0,8.888442516E-1,8.223070602E0
3.323614756E0,1.241775751E-1,8.030290604E0,-4.833053350E-1,8.045779720E0
3.342749860E0,-1.040874124E0,7.867695332E0,-7.144618034E-2,7.936570628E0
3.361885069E0,-6.287917495E-1,5.999773502E0,8.772220612E-1,6.096079042E0
3.381006840E0,7.977821231E-1,3.742003918E0,7.101794481E-1,3.891452747E0
3.400155277E0,2.630201101E0,1.058778763E0,2.177071571E0,3.574718301E0
3.419290381E0,4.001640320E0,-3.831536293E0,1.234741807E0,5.676123937E0
3.438412152E0,2.535960674E0,-1.034931755E1,-4.231553078E-1,1.066388910E1
3.457560590E0,-8.365000486E-1,-8.546916962E0,3.165352821E0,9.152539558E0
3.476695798E0,-7.883058190E-1,-2.002547264E0,5.171184540E0,5.601140166E0
3.495817569E0,9.985967278E-1,-1.610651970E0,9.998284578E-1,2.142674063E0
3.514966006E0,1.210341930E0,-1.258586979E1,-6.258409977E0,1.410803818E1
3.534101110E0,-4.006161690E0,-1.162633896E1,-9.147753716E0,1.532652887E1
3.553222881E0,-4.859697342E0,1.133859634E0,-3.206662416E0,5.931692826E0
3.572371319E0,-5.080961227E0,2.446126461E0,-1.555946946E0,5.849843806E0
3.591493194E0,-4.629038811E0,-3.045582771E0,-6.153687835E-1,5.575146049E0
3.610641631E0,-3.464776039E0,-6.050631523E0,1.012408376E0,7.045550763E0
3.629763402E0,-2.996203661E0,-3.145143509E0,-2.767905593E-1,4.352674705E0
3.648911840E0,-2.133626223E0,7.216072083E-2,-5.996630192E-1,2.217467872E0
3.668046944E0,-1.122852802E0,3.024319172E0,7.992713451E-1,3.323573311E0
3.687168819E0,-1.156927347E0,4.733191490E0,2.156654835E0,5.328484085E0
3.706317256E0,-1.024487257E0,6.172367096E0,2.180152416E0,6.625764429E0
3.725452360E0,-4.847794771E-1,7.157170296E0,2.398887396E0,7.564043794E0
3.744587465E0,5.632042885E-1,7.683902264E0,1.407940984E0,7.832103860E0
3.763722569E0,9.844318628E-1,7.968908310E0,-8.944988251E-2,8.029981758E0
3.782857673E0,5.845894217E-1,7.398480892E0,1.236342072E0,7.523815922E0
3.801979548E0,1.155559063E0,5.576922417E0,1.212408304E0,5.822998737E0
3.821127985E0,1.305691481E0,3.602664948E0,9.041108489E-1,3.937186990E0
3.840263090E0,3.936784267E-1,1.207094193E0,1.815619707E0,2.215521161E0
3.859384860E0,-8.209931850E-2,-7.433958054E-1,2.658701897E0,2.761896703E0
3.878533298E0,6.071737409E-1,-2.227985382E0,3.147662163E0,3.903889843E0
3.897668506E0,2.201559782E0,-4.381880760E0,5.584366798E0,7.431883813E0
3.916790277E0,3.541459799E0,-6.209032059E0,7.284076214E0,1.020547808E1
3.935938715E0,4.572859764E0,-6.796131134E0,5.204634666E0,9.704981547E0
3.955073819E0,5.623088837E0,-5.124835968E0,1.492179871E0,7.753042792E0
3.974195590E0,6.400056362E0,-3.105765343E0,-2.456613064E0,7.526051259E0
3.993344027E0,4.854416370E0,-9.173192978E-1,-4.055355549E0,6.391614946E0
4.012479235E0,5.013346076E-1,1.748466492E-1,-4.745837212E0,4.775445380E0
4.031601006E0,-1.794366598E0,-9.098472595E-1,-7.455570698E0,7.722247597E0
4.050749444E0,-2.710254669E0,-2.767421722E0,-8.013267517E0,8.900368513E0
4.069884548E0,-3.395518780E0,-8.535104752E0,-3.934315205E0,9.992817272E0
4.089006319E0,-3.570260286E0,-1.127462864E1,-6.826407909E-1,1.184609674E1
4.108154860E0,-2.996867180E0,-7.284017563E0,-2.272003651E0,8.197568258E0
4.127276631E0,-5.845844746E-1,-2.585298538E0,-1.878542900E0,3.248758373E0
4.146425069E0,2.914093256E0,8.127498627E-2,-4.064196587E0,5.001623639E0
4.165560173E0,3.674078941E0,4.472506046E0,-1.250301361E0,5.921606192E0
4.184681944E0,3.279200315E0,8.260155678E0,1.095656514E0,8.954540174E0
4.203830485E0,2.478701830E0,9.892311096E0,2.347447395E0,1.046481203E1
4.222965590E0,1.414751530E0,9.146712303E0,1.220462203E0,9.335598312E0
4.242100694E0,1.636642218E-1,9.378724098E0,5.281953812E-1,9.395011551E0
4.261235798E0,-2.842656076E-1,9.516336441E0,-5.488364697E-1,9.536387558E0
4.280357673E0,-2.095876485E-1,7.623652935E0,-2.720050812E-1,7.631382432E0
4.299506110E0,5.045896769E-2,5.192052364E0,1.265345454E0,5.344254202E0
4.318641215E0,1.721246958E0,7.394561768E-1,2.947300434E0,3.492286697E0
4.337762985E0,3.751074553E0,-6.510327339E0,3.406983852E0,8.249997657E0
4.356911423E0,3.219630241E0,-1.354133797E1,9.654533863E-1,1.395227412E1
4.376046631E0,-3.989365399E-1,-9.879649162E0,1.622426271E0,1.001992440E1
4.395168402E0,-1.423543215E0,-2.261899948E0,3.922705889E0,4.746608068E0
4.414316840E0,3.257903457E-1,-1.788992882E0,1.080428004E0,2.115173646E0
4.433451944E0,2.906242609E-1,-1.233403015E1,-3.439782143E0,1.280799998E1
4.452573715E0,-3.389892578E0,-1.081387138E1,-7.253166199E0,1.345509591E1
4.471722256E0,-4.799530029E0,2.159976959E0,-5.307258129E0,7.474488465E0
4.490857360E0,-4.855379105E0,3.213428020E0,-2.303412914E0,6.261512353E0
4.509979131E0,-4.817166328E0,-1.714326859E0,7.888592482E-1,5.173616426E0
4.529127569E0,-3.689233541E0,-5.917295456E0,1.312924981E0,7.095674855E0
4.548262673E0,-3.490699530E0,-3.643698692E0,1.604866982E-2,5.045966798E0
4.567384548E0,-2.478862047E0,2.161693573E-1,-6.949679255E-1,2.583498918E0
4.586532985E0,-1.200227737E0,2.990890026E0,2.123255432E-1,3.229713905E0
4.605668090E0,-9.610509872E-1,4.580564976E0,1.873248458E0,5.041255229E0
4.624803194E0,-4.333997369E-1,5.720635414E0,2.011543512E0,6.079458214E0
4.643938298E0,-5.031914115E-1,6.658262730E0,9.725967646E-1,6.747711363E0
4.663073506E0,-4.164910316E-1,7.633841515E0,6.765453815E-1,7.675070990E0
4.682208610E0,2.186770439E-1,7.620425224E0,4.753083885E-1,7.638364898E0
4.701343715E0,4.474100471E-1,6.478113174E0,4.431790411E-1,6.508650683E0
4.720478819E0,2.371639013E-1,5.077173233E0,1.121691704E0,5.205009801E0
4.739600694E0,1.979399920E-1,3.473111153E0,9.336489439E-1,3.601858086E0
4.758749131E0,-2.898567915E-1,1.510910988E0,1.928084970E0,2.466653730E0
4.777884235E0,-2.673888206E-1,-3.255939484E-2,2.763773918E0,2.776869310E0
4.797006006E0,1.084061980E0,-1.533909798E0,3.366935730E0,3.855428103E0
4.816154444E0,2.741302252E0,-3.280700684E0,5.396313667E0,6.884615908E0
4.835289548E0,4.184295654E0,-4.538116455E0,6.742262363E0,9.141166931E0
4.854411423E0,5.209271908E0,-5.711227417E0,5.503816605E0,9.489290260E0
4.873559860E0,6.569087505E0,-5.046364784E0,9.359046221E-1,8.336343662E0
4.892694965E0,7.773444176E0,-3.856287003E0,-4.046862602E0,9.574679145E0
4.911816735E0,4.934336662E0,-2.069221497E0,-5.290451050E0,7.524508503E0
4.930965173E0,-1.885975897E-1,-2.728184700E0,-5.103196144E0,5.789747118E0
4.950100381E0,-2.240741253E0,-4.858002663E0,-7.102618217E0,8.892035581E0
4.969222152E0,-3.700510502E0,-6.641821861E0,-8.116592407E0,1.112144990E1
4.988370590E0,-4.881176472E0,-1.063279057E1,-3.895627499E0,1.233118131E1
5.007505694E0,-3.855666161E0,-6.782791138E0,-1.312076807E0,7.911634642E0
5.026627569E0,-3.056518078E0,-8.865652084E-1,-2.169897318E0,3.851850854E0
5.045776006E0,3.940405846E-1,-1.801439285E0,-2.658762693E0,3.235656122E0
5.064911110E0,3.174753904E0,1.971746445E0,-2.390309811E0,4.436262772E0
5.084032881E0,4.099835873E0,4.808204174E0,-6.794118881E-2,6.319184882E0
5.103181319E0,3.654363632E0,7.260960579E0,1.574447274E0,8.279782987E0
5.122316527E0,2.532864809E0,9.059149742E0,2.668340206E0,9.777711268E0
5.141451631E0,1.245401025E0,9.384707451E0,1.841474414E0,9.644417332E0
5.160586735E0,-2.886219621E-1,9.225688934E0,6.123644114E-1,9.250493453E0
5.179721840E0,-2.039229631E0,9.469710350E0,-6.099275351E-1,9.705971523E0
5.198843610E0,-2.381592751E0,7.618663788E0,8.562371731E-1,8.028023670E0
5.217992152E0,1.535066366E-1,2.752334595E0,1.649456501E0,3.212416031E0
5.237127256E0,2.410415649E0,-1.605948448E0,1.785227060E0,3.402382941E0
5.256249027E0,3.651887417E0,-7.316679001E0,7.235147953E-1,8.209357281E0
5.275397465E0,2.504735470E0,-1.132118893E1,1.646345139E0,1.171125402E1
5.294532569E0,-8.347103000E-1,-7.201247215E0,4.366499901E0,8.462920543E0
5.313654444E0,-6.845434308E-1,-2.432769775E0,2.870374203E0,3.824397541E0
5.332802881E0,7.676591277E-1,-3.551606178E0,-1.071403503E0,3.788286215E0
5.351937985E0,-3.469856977E-1,-1.098941326E1,-6.912557602E0,1.298734213E1
5.371059756E0,-3.758501768E0,-6.431057930E0,-5.390654087E0,9.194780755E0
5.390208194E0,-4.534417629E0,1.382534981E0,-4.112456322E0,6.275718541E0
5.409343402E0,-4.344442844E0,4.863548279E-2,-2.077479362E0,4.815856055E0
5.428465173E0,-3.572552681E0,-4.128602982E0,6.868690848E-1,5.502752437E0
5.447613610E0,-3.342537403E0,-4.831289291E0,6.670866013E-1,5.912606620E0
5.466735381E0,-3.167646885E0,-2.092843056E0,-5.676864982E-1,3.838781943E0
5.485883819E0,-2.310460091E0,4.500093460E-1,-4.610571265E-1,2.398605411E0
5.505019027E0,-1.284100890E0,3.050237656E0,1.514638066E0,3.639641922E0
5.524140798E0,-2.967002392E-1,4.961029053E0,2.232825279E0,5.448426289E0
5.543289235E0,1.425712705E-1,6.391801834E0,1.367835283E0,6.538075452E0
5.562424340E0,1.867074966E-1,7.537924290E0,5.350302458E-1,7.559194378E0
5.581559548E0,3.619734049E-1,8.120304108E0,-2.332782745E-2,8.128401302E0
5.600694652E0,8.079091907E-1,7.641356945E0,2.122263908E-1,7.686877992E0
5.619829756E0,6.698028445E-1,6.906959534E0,1.260452986E0,7.052904904E0
5.638964860E0,1.175498009E0,5.411813736E0,1.027698398E0,5.632556034E0
5.658086631E0,1.057414532E0,3.584267616E0,2.605682611E-1,3.746064022E0
5.677235173E0,3.062416315E-1,1.566822052E0,1.931501627E0,2.505875858E0
5.696370277E0,5.434585214E-1,-1.094293594E0,3.834236860E0,4.024201528E0
5.715492048E0,1.574367046E0,-4.718308449E0,4.543680191E0,6.736920357E0
5.734640485E0,2.627531290E0,-8.312630653E0,5.194364548E0,1.014816102E1
5.753775590E0,3.917748928E0,-8.331066132E0,5.068574905E0,1.050932306E1
5.772897465E0,5.198657990E0,-5.230974197E0,1.508770704E0,7.527650695E0
5.792045902E0,6.319403172E0,-2.857575417E0,-3.462364674E0,7.751681291E0
5.811181006E0,5.511224747E0,-6.826734543E-1,-4.122556686E0,6.916293436E0
5.830302777E0,3.638795018E-1,-3.359355927E-1,-3.304188251E0,3.341095781E0
5.849451319E0,-2.258059502E0,-3.783485413E0,-5.185794830E0,6.804855811E0
5.868586423E0,-4.442372799E0,-5.724875450E0,-7.389764786E0,1.034975838E1
5.887708194E0,-6.913779736E0,-9.600195885E0,-3.082872868E0,1.222571946E1
5.906856631E0,-4.522287369E0,-7.111149788E0,-2.756113768E0,8.866549354E0
5.925991735E0,-1.532831907E0,-1.186144829E0,-3.592591286E0,4.082061410E0
5.945113610E0,1.597061157E0,-2.899418831E0,-3.367520094E0,4.722014981E0
5.964262048E0,3.298865318E0,1.894536018E0,-2.971189499E0,4.826981060E0
5.983397152E0,4.045915127E0,4.553632736E0,-4.645088911E-1,6.109072664E0
6.002518923E0,3.358666420E0,6.744965553E0,2.208363295E0,7.851883142E0
6.021667465E0,2.914731503E0,7.801321983E0,5.795191526E-1,8.348181051E0
6.040802569E0,2.108561993E0,9.267075539E0,9.231021404E-1,9.548656465E0
6.059937673E0,1.518552780E0,9.920282364E0,3.740255833E-1,1.004280339E1
6.079072777E0,1.716872811E0,9.666430473E0,-6.392220855E-1,9.838502692E0
6.098207881E0,1.494587183E0,7.327786446E0,5.327541828E-1,7.497604421E0
6.117343090E0,1.339297771E0,3.937579632E0,2.458374500E0,4.831341124E0
6.136464860E0,2.326094389E0,-7.114639282E-1,2.813812494E0,3.719467271E0
6.155613298E0,2.854787827E0,-7.231142998E0,1.389358521E0,7.897440072E0
6.174748402E0,9.411166310E-1,-1.173263741E1,3.336506844E0,1.223408186E1
6.193870277E0,-2.183300972E0,-7.285677910E0,4.815550804E0,9.002079498E0
6.213018715E0,-2.608023167E0,-2.728683472E0,3.683545589E-1,3.792516764E0
6.232153819E0,-3.146285057E0,-1.000458908E1,-6.707405090E0,1.244910420E1
6.251275590E0,-5.197216511E0,-1.619803619E1,-6.195167542E0,1.810435132E1
6.270424131E0,-4.355456352E0,-3.702802658E-1,-1.737567067E0,4.703854465E0
6.289559235E0,-1.594111562E0,3.858902454E0,-3.640629053E0,5.539539667E0
6.308694340E0,-1.462135553E0,2.282743931E0,-1.327914238E0,3.018628240E0
6.327829444E0,-3.449369192E0,-5.429999352E0,-2.971277535E-1,6.439823420E0
6.346964548E0,-4.549176216E0,-4.898753166E0,-8.793410659E-2,6.685844691E0
6.366086423E0,-4.765326977E0,-1.698281288E0,-4.994927347E-1,5.083502092E0
6.385234860E0,-3.125152826E0,1.300648689E0,4.154275358E-2,3.385261142E0
6.404369965E0,-7.901649475E-1,3.171960831E0,1.096502066E0,3.447899786E0
6.423505069E0,-9.023112059E-2,4.448022366E0,1.488210201E0,4.691248685E0
6.442640277E0,2.736079693E-2,5.075497150E0,1.883748770E0,5.413864550E0
6.461775381E0,-3.624017239E-1,6.225505352E0,2.093602180E0,6.578101701E0
6.480910485E0,5.992787480E-1,6.988615513E0,8.916655779E-1,7.070710665E0
6.500045590E0,1.161168575E0,7.347084522E0,-6.420493126E-2,7.438554007E0
6.519180798E0,1.310017705E0,6.340175629E0,8.509324789E-1,6.529782498E0
6.538315902E0,2.204652786E0,4.397605419E0,1.418879509E0,5.119828746E0
6.557451006E0,2.681524754E0,2.861755848E0,2.292675734E0,4.542750660E0
6.576586110E0,3.308810234E0,1.490735054E0,2.857927799E0,4.619336259E0
6.595721319E0,2.747168541E0,8.666181564E-1,3.992215157E0,4.922981198E0
6.614856423E0,2.248039484E0,-1.258431435E0,3.734580994E0,4.537006325E0
6.633991527E0,2.843445539E0,-5.611652374E0,3.555171013E0,7.225999297E0
6.653113298E0,4.535001278E0,-1.048679733E1,3.830907822E0,1.205051906E1
6.672261840E0,5.338189125E0,-7.801939964E0,1.805109501E0,9.624185714E0
6.691383610E0,4.308113575E0,-1.335299492E0,-8.987272382E-1,4.598975751E0
6.710532048E0,2.480897307E-1,1.208887100E-1,-2.390593529E0,2.406470447E0
6.729667152E0,-1.899448514E0,8.726415634E-1,-4.824900150E0,5.258238243E0
6.748789027E0,-3.896772385E0,6.168022156E-1,-6.298478603E0,7.432100155E0
6.767937465E0,-5.825290203E0,-4.038370132E0,-6.241380215E0,9.444430436E0
6.787072569E0,-5.582102776E0,-1.073628902E1,-5.458639622E0,1.327495838E1
6.806194340E0,-3.534293413E0,-1.416666222E1,-4.325937271E0,1.522823961E1
6.825342881E0,1.554085016E0,-5.025117874E0,-2.823028803E0,5.969629931E0
6.844477985E0,3.615747690E0,-2.155693054E0,-1.563037157E0,4.490404108E0
6.863599756E0,3.963869333E0,1.153064728E0,-1.890713573E0,4.540552408E0
6.882748194E0,3.673913002E0,3.099830151E0,-2.107858658E-2,4.806977014E0
6.901883402E0,3.233883619E0,5.183180809E0,6.838850975E-1,6.147443809E0
6.921005173E0,1.623532057E0,6.969687462E0,4.672373533E-1,7.171520787E0
6.940153610E0,1.378168315E-1,7.956474304E0,1.157350540E-1,7.958509373E0
6.959288715E0,-6.894347668E-1,8.123196602E0,4.176925421E-1,8.163094413E0
6.978423923E0,-9.495533705E-1,7.333615303E0,4.338281155E-1,7.407548302E0
6.997559027E0,9.928047657E-3,5.901555061E0,7.877829075E-1,5.953910699E0
7.016680798E0,3.934493661E-1,4.139458179E0,2.425531864E0,4.813846824E0
7.035829340E0,1.853179932E0,1.378096581E0,1.840745330E0,2.953264196E0
7.054964444E0,3.242870808E0,-1.265213966E0,4.692206383E-1,3.512427289E0
7.074086215E0,2.103359938E0,-4.214182854E0,5.619835854E-2,4.710267339E0
7.093234652E0,-1.257161379E0,-5.431606293E0,1.775008440E0,5.850936388E0
7.112356527E0,-9.526739120E-1,-3.511513710E0,2.756610394E0,4.564780058E0
7.131504965E0,1.125421524E0,-2.595967293E0,-2.366961241E-1,2.839303585E0
7.150626735E0,-8.541581631E-1,-8.427722931E0,-5.559957981E0,1.013258273E1
7.169775173E0,-6.895006180E0,-1.593192291E1,-9.884681702E0,1.997684185E1
7.188910381E0,-5.701951981E0,-1.377811432E0,-1.603045225E0,6.081149129E0
7.208032152E0,-3.313077450E0,2.634318829E0,-1.533840418E0,4.502086661E0
7.227180590E0,-2.000144958E0,-1.888306618E0,-1.037268400E0,2.939763166E0
7.246315798E0,-2.479634285E0,-6.148864746E0,1.733899117E-4,6.630016884E0
7.265450902E0,-3.082624197E0,-4.482683182E0,-3.807946742E-1,5.453624944E0
7.284586006E0,-3.285584211E0,-1.115707397E0,-1.339025736E0,3.719254835E0
7.303707777E0,-1.553036094E0,1.223594666E0,-1.314240396E-1,1.981508842E0
7.322856319E0,-1.132616878E0,3.018045425E0,1.622826934E0,3.609014608E0
7.341991423E0,-1.105680943E0,4.918509007E0,3.395329714E-1,5.052676898E0
7.361126527E0,-7.070590854E-1,6.064055920E0,1.230029106E0,6.227814894E0
7.380261631E0,3.267329931E-2,6.579517365E0,1.592174292E0,6.769500371E0
7.399396840E0,2.284713984E-1,7.830196381E0,5.459655523E-1,7.852531625E0
7.418531944E0,6.820352077E-1,8.158801079E0,4.068086743E-1,8.197359353E0
7.437667048E0,8.904804587E-1,7.496008396E0,9.451169372E-1,7.607650317E0
7.456788923E0,1.596944809E0,5.272656441E0,1.020728588E0,5.602947931E0
7.475937360E0,1.959415913E0,1.814681530E0,2.251556396E0,3.493119806E0
7.495072465E0,2.182520866E0,-1.096285820E0,3.757244587E0,4.481308605E0
7.514194235E0,1.967098594E0,-3.168380737E0,4.223138332E0,5.634093605E0
7.533342777E0,2.336379766E0,-5.329339027E0,2.376752377E0,6.285656429E0
7.552477881E0,3.875687122E0,-6.742303848E0,2.039670944E0,8.039892376E0
7.571612985E0,4.296513557E0,-6.745594025E0,2.065591097E0,8.260129180E0
7.590734860E0,4.375139236E0,-4.285270691E0,1.100315213E0,6.222224827E0
7.609883298E0,2.918947220E0,-1.355543137E0,-2.167595625E-1,3.225637112E0
7.629018402E0,-2.796471119E-2,1.770935059E-1,-2.455908537E0,2.462444086E0
7.648140173E0,-2.397548914E0,1.099947929E0,-3.466007710E0,4.355609680E0
7.667288715E0,-5.266707897E0,5.672607422E-1,-5.426700115E0,7.583473542E0
7.686423819E0,-5.888298035E0,-3.484866142E0,-6.358805656E0,9.340811268E0
7.705545590E0,-4.101992607E0,-9.563946724E0,-3.946959496E0,1.112986566E1
7.724694131E0,-3.245917320E0,-1.102699566E1,-4.103006363E0,1.220513309E1
7.743829235E0,6.364096999E-1,-7.088462830E0,-3.453918457E0,7.910807500E0
7.762951006E0,4.068426132E0,-2.950262070E0,-4.565338612E0,6.789584237E0
7.782099548E0,4.076467991E0,-6.472826004E-1,-4.228219032E0,5.908841023E0
7.801234652E0,3.361518860E0,2.802802563E0,-2.255468369E-1,4.382508714E0
7.820356423E0,2.543696880E0,6.656607628E0,1.295872211E0,7.242934745E0
7.839504860E0,1.842810154E0,8.342828751E0,6.909277439E-1,8.571821392E0
7.858640069E0,4.943889678E-1,8.443586349E0,9.587736130E-1,8.512215795E0
7.877775173E0,-4.289675653E-1,8.341570854E0,1.324542522E0,8.456963426E0
7.896910277E0,-7.727848291E-1,7.337036133E0,2.631031275E-1,7.382311214E0
7.916045485E0,6.669390202E-2,4.841426373E0,5.548058748E-1,4.873568195E0
7.935167256E0,1.214881659E0,2.934366226E0,1.148530483E0,3.377212588E0
7.954315694E0,2.461763620E0,7.722272873E-1,1.789822578E0,3.140076427E0
7.973450902E0,3.482140064E0,-3.526282310E0,4.596418142E-1,4.977071122E0
7.992572673E0,2.948843002E0,-7.017933846E0,-1.460955262E0,7.751223180E0
8.011721110E0,3.629438877E-1,-5.951521873E0,1.003152847E0,6.046375485E0
8.030856215E0,-4.771998227E-1,-2.690309525E0,3.171244144E0,4.185961590E0
8.049991423E0,-2.699754238E-1,-3.454152107E0,1.563718319E0,3.801219343E0
8.069126527E0,-3.333536148E0,-1.199315548E1,-5.030728817E0,1.342596269E1
8.088248298E0,-1.039945507E1,-1.133964157E1,-8.775925636E0,1.771307448E1
8.107396840E0,-5.850348949E0,1.847054005E0,-3.750394821E0,7.190525199E0
8.126531944E0,-1.122176409E0,1.185481071E0,-1.245310307E0,2.053154408E0
8.145653715E0,-1.100110292E0,-3.795393944E0,-7.061580420E-1,4.014214372E0
8.164802256E0,-2.363064051E0,-5.180502892E0,-5.979040861E-1,5.725309705E0
8.183924027E0,-3.225721121E0,-2.163559914E0,-2.325488329E-1,3.891059908E0
8.203072465E0,-2.677112579E0,2.004699707E-1,-4.968985319E-1,2.730206608E0
8.222207673E0,-1.318965197E0,2.484737396E0,6.269140840E-1,2.882119079E0
8.241342777E0,-6.390949488E-1,3.382032871E0,1.378234029E0,3.707575722E0
8.260477881E0,-1.080768943E0,4.227152824E0,7.716626525E-1,4.430840299E0
8.279613090E0,-1.122000694E0,5.249234676E0,1.317313313E0,5.527084639E0
8.298748194E0,-2.236993313E-1,5.918519497E0,1.277927160E0,6.059043840E0
8.317883298E0,5.005073547E-2,6.821742058E0,4.987661242E-1,6.840134313E0
8.337018506E0,-6.834733486E-2,6.801589966E0,3.437748551E-1,6.810615139E0
8.356153610E0,8.159216046E-1,5.387731552E0,6.168074012E-1,5.483961225E0
8.375275381E0,1.462324739E0,3.360104561E0,1.125166655E0,3.833366184E0
8.394423819E0,2.614267826E0,1.221364975E0,2.304559231E0,3.692847400E0
8.413559027E0,3.188266277E0,-1.893424988E-1,3.826831818E0,4.984529486E0
8.432680798E0,3.026122570E0,-1.763989449E0,3.759706020E0,5.138527605E0
8.451829235E0,2.399447203E0,-3.957005501E0,2.289477348E0,5.163036504E0
8.470964444E0,2.579136372E0,-6.021639824E0,1.353325725E0,6.689064292E0
8.490099548E0,3.783236504E0,-6.433958054E0,8.666518927E-1,7.513972330E0
8.509221319E0,3.712301970E0,-3.852645874E0,4.842547774E-1,5.372017203E0
8.528369860E0,1.693041921E0,-1.593614578E0,2.363697886E-1,2.337064194E0
8.547504965E0,-6.202526093E-1,-1.904296875E-2,-2.456105947E0,2.533284895E0
8.566626735E0,-2.618517399E0,1.484092712E0,-4.076181412E0,5.066993137E0
8.585775277E0,-4.819389343E0,9.758939743E-1,-4.664981842E0,6.777974497E0
8.604910381E0,-5.713627815E0,-2.915452957E0,-4.598592281E0,7.892557236E0
8.624032152E0,-4.210109711E0,-7.360692978E0,-4.116500854E0,9.426049235E0
8.643180694E0,-2.360402584E0,-8.277066231E0,-4.387702465E0,9.660913967E0
8.662315798E0,6.792707443E-1,-6.973091125E0,-2.794651985E0,7.542909804E0
8.681437569E0,3.914336443E0,-4.842185974E0,-3.839968681E0,7.315336921E0
8.700586110E0,4.356827259E0,-9.512538910E-1,-3.104510069E0,5.433673757E0
8.719721215E0,3.496172190E0,2.288062096E0,-1.810652018E-1,4.182252114E0
8.738843090E0,2.497446537E0,5.595135689E0,5.091335773E-1,6.148333073E0
8.757991527E0,1.136132240E0,8.287333488E0,9.254354239E-1,8.415885191E0
8.777126631E0,-2.027834505E-1,8.429044724E0,9.856393337E-1,8.488898690E0
8.796261840E0,-1.456411600E0,8.532402992E0,6.821734905E-1,8.682649149E0
8.815383610E0,-1.726625681E0,7.547065735E0,2.848644257E-1,7.747295347E0
8.834532048E0,-8.106216192E-1,4.977165222E0,7.560878992E-1,5.099112665E0
8.853667256E0,-7.625818253E-2,3.500267982E0,2.196505070E0,4.133077035E0
8.872789027E0,8.707486391E-1,1.623549461E0,2.988580227E0,3.510801592E0
8.891937465E0,2.499852180E0,-1.624601364E0,1.317285061E0,3.259421797E0
8.911072673E0,3.016928673E0,-4.595347404E0,-1.998832464E0,5.849308301E0
8.930194444E0,9.232836962E-1,-4.419840813E0,-9.946312904E-1,4.623498350E0
8.949342881E0,-6.492851973E-1,-2.608819008E0,3.964241982E0,4.789856195E0
8.968478090E0,6.288492084E-1,-1.101430893E0,3.632028580E0,3.847107087E0
8.987613194E0,9.134002328E-1,-4.718608856E0,-1.867654085E0,5.156326338E0
9.006748402E0,-5.093915939E0,-1.624820328E1,-1.016406155E1,1.983079011E1
9.025870173E0,-8.989223480E0,-6.350761414E0,-5.971823215E0,1.252201988E1
9.045018610E0,-4.322238922E0,2.365693569E0,-2.485342503E0,5.518621451E0
9.064153819E0,-1.785594225E0,1.088915825E0,-3.862075210E-1,2.126791165E0
9.083275590E0,-1.886737704E0,-4.636615753E0,-1.472293735E-1,5.007959794E0
9.102424027E0,-2.375347376E0,-5.141551018E0,-3.718252182E-1,5.675920720E0
9.121545902E0,-3.086204052E0,-1.897185326E0,-6.093596816E-1,3.673593177E0
9.140694340E0,-2.308145523E0,4.094810486E-1,-5.743942261E-1,2.413532517E0
9.159829444E0,-1.118445516E0,2.128660202E0,6.012099981E-2,2.405354269E0
9.178964652E0,-9.558535814E-1,2.771116257E0,7.594624162E-1,3.028122279E0
9.198099756E0,-5.540475845E-1,4.393213749E0,6.274843812E-1,4.472251381E0
9.217234965E0,2.015895844E-1,5.513301373E0,1.085942030E0,5.622846297E0
9.236370069E0,1.535430193E0,5.955286503E0,1.104034781E0,6.248349863E0
9.255505173E0,1.879436731E0,6.658212662E0,9.801217914E-2,6.919081201E0
9.274640381E0,1.767040253E0,6.436395168E0,2.803556919E-1,6.680435115E0
9.293775485E0,1.799233198E0,5.385734081E0,6.735617518E-1,5.718134060E0
9.312910590E0,2.082214355E0,3.307420731E0,1.667003632E0,4.248946884E0
9.332045798E0,1.711640835E0,1.509585381E0,3.411512136E0,4.104506965E0
9.351167569E0,1.010860920E0,3.507843018E-1,3.795909166E0,3.943832631E0
9.370316110E0,9.965497255E-1,-1.923566818E0,2.603935003E0,3.387284777E0
9.389451215E0,6.315309405E-1,-4.906654358E0,1.665193915E0,5.219861980E0
9.408586319E0,1.583707094E0,-6.578380585E0,7.450888753E-1,6.807229738E0
9.427721527E0,3.326578379E0,-5.587711334E0,5.855090618E-1,6.529277336E0
9.446843298E0,3.917751312E0,-3.674845695E0,2.638892233E-1,5.378001836E0
9.465991735E0,2.425093174E0,-2.286948204E0,-3.730973303E-1,3.354163176E0
9.485113610E0,3.829981685E-1,-1.003551483E-1,-3.391343594E0,3.414376974E0
9.504262048E0,-2.330231667E0,6.760091782E-1,-4.818448544E0,5.394850730E0
9.523397256E0,-5.579957008E0,-8.499279022E-1,-7.063836098E0,9.041906772E0
9.542519027E0,-7.195250511E0,-5.161999702E0,-6.178782463E0,1.079792682E1
9.561667465E0,-4.645564079E0,-9.584523201E0,-3.453024149E0,1.119677303E1
9.580802673E0,-2.104764700E0,-7.245121002E0,-3.834547520E0,8.463188965E0
9.599924444E0,2.529811382E0,-4.158446312E0,-3.593905449E0,6.050518799E0
9.619072985E0,4.653222084E0,-2.519484520E0,-3.523347855E0,6.357220943E0
9.638208090E0,4.044364452E0,6.706495285E-1,-2.343364716E0,4.722077170E0
9.657329860E0,2.956678629E0,4.928541660E0,5.886044502E-1,5.777449836E0
9.676478402E0,2.070312500E0,6.400587082E0,-8.032441139E-3,6.727092489E0
9.695613506E0,1.055165768E0,8.011280060E0,7.304313183E-1,8.113415613E0
9.714748715E0,5.092959404E-1,8.532964706E0,2.193148851E0,8.825008267E0
9.733883819E0,4.782319814E-2,8.444500923E0,1.717058778E0,8.617434290E0
9.753005590E0,3.846306205E-1,6.635742188E0,5.586208105E-1,6.670312759E0
9.772154131E0,1.267452717E0,3.906825066E0,-7.733488083E-2,4.108004280E0
9.791289235E0,1.676748395E0,2.075113773E0,8.505213261E-1,2.800173009E0
9.810411110E0,2.837388039E0,7.801055908E-2,1.502092123E0,3.211407367E0
9.829559548E0,4.101480961E0,-3.763139725E0,4.404664040E-2,5.566444715E0
9.848694652E0,2.485019684E0,-6.764019966E0,-2.131542444E0,7.514703063E0
9.867816527E0,-3.664017916E-1,-5.276103973E0,6.525177956E-1,5.328911979E0
9.886964965E0,-3.058952391E-1,-1.217212677E0,3.675915718E0,3.884267623E0
9.906100173E0,1.858196259E0,-1.154615402E0,1.777921677E0,2.819048696E0
9.925221944E0,-2.511262894E-3,-9.340692520E0,-3.997125149E0,1.015999766E1
9.944370381E0,-7.808130741E0,-1.383643723E1,-1.050298882E1,1.904538461E1
9.963505590E0,-8.120858192E0,-3.671417236E-1,-3.146834850E0,8.716977710E0
9.982627360E0,-4.424696922E0,1.830514431E0,-1.388674021E0,4.985693680E0
1.000177590E1,-2.242260695E0,-1.261331558E0,5.178729296E-1,2.624287083E0
1.002091101E1,-1.643521667E0,-3.788047791E0,-1.296678185E-1,4.131256864E0
1.004004611E1,-1.032076836E0,-3.110848427E0,-1.516347408E0,3.611352931E0
1.005916798E1,-1.922391891E0,-8.899030685E-1,-1.303191304E0,2.487132009E0
1.007831642E1,-1.505033731E0,9.922285080E-1,-1.426394284E-1,1.808311354E0
1.009745163E1,-1.340514898E0,2.014250278E0,5.553468466E-1,2.482457350E0
1.011658674E1,-1.393296242E0,3.567844868E0,2.531309426E-1,3.838602179E0
1.013572194E1,-1.039396644E0,4.826955795E0,5.040593147E-1,4.963257340E0
1.015485705E1,-3.614253998E-1,5.712000847E0,9.477677345E-1,5.801365845E0
1.017399215E1,5.838422179E-1,6.233060837E0,6.132839918E-1,6.290312900E0
1.019312736E1,1.121334314E0,6.518127918E0,3.748973608E-1,6.624494715E0
1.021226246E1,1.117676497E0,5.905480385E0,9.799486995E-1,6.089679694E0
1.023139767E1,1.357099414E0,4.445260048E0,1.307959557E0,4.828334487E0
1.025051944E1,1.765326738E0,2.535034180E0,2.328739643E0,3.868566286E0
1.026966798E1,1.902114153E0,6.941871643E-1,3.942891836E0,4.432418087E0
1.028880309E1,2.448275089E0,-1.825964928E0,3.362552643E0,4.542571860E0
1.030792486E1,1.716698885E0,-5.220803261E0,2.341984272E0,5.974004694E0
1.032707340E1,2.130318403E0,-6.928398132E0,-1.845306158E-2,7.248537625E0
1.034619517E1,4.300995827E0,-5.428019524E0,-1.588644981E-1,6.927279335E0
1.036534372E1,4.618755817E0,-4.512144089E0,-8.263000846E-1,6.509617608E0
1.038446548E1,2.699623108E0,-3.379892349E0,-1.577318430E0,4.604299148E0
1.040361403E1,5.321955681E-2,-6.600599289E-1,-3.302489758E0,3.368226541E0
1.042274913E1,-3.523623705E0,5.924949646E-1,-4.100235462E0,5.438649202E0
1.044187101E1,-6.975717068E0,-4.302597046E-1,-5.404380322E0,8.834765344E0
1.046101944E1,-7.248751640E0,-4.380825043E0,-3.454574108E0,9.147136747E0
1.048015455E1,-3.938358307E0,-6.941524506E0,-2.488893032E0,8.360024949E0
1.049927642E1,-1.374497175E0,-4.935857773E0,-3.718092918E0,6.330572596E0
1.051842486E1,2.561481237E0,-3.330739021E0,-4.971848488E0,6.509553437E0
1.053756007E1,3.475369215E0,-2.256051064E0,-3.798286676E0,5.620937578E0
1.055668184E1,3.216857672E0,2.178459167E0,-1.822970867E0,4.291512601E0
1.057583038E1,2.504077435E0,4.237765789E0,-1.252796650E-1,4.923896595E0
1.059496549E1,1.994871616E0,5.605995655E0,2.081133127E-1,5.953991199E0
1.061410069E1,1.753647447E0,6.685338020E0,1.270276427E0,7.027277283E0
1.063323580E1,7.686315775E-1,6.864990711E0,6.724450588E-1,6.940538475E0
1.065237101E1,3.699163795E-1,6.879551888E0,6.563018560E-1,6.920679477E0
1.067150611E1,6.720384955E-1,5.259021282E0,3.738648891E-1,5.314952073E0
1.069064132E1,1.082573533E0,3.150196552E0,7.278168201E-1,3.409607176E0
1.070976309E1,2.138115406E0,1.870616913E0,1.468824506E0,3.198154242E0
1.072891163E1,3.985861540E0,4.340314865E-1,7.340538502E-1,4.076065579E0
1.074804674E1,4.743103981E0,-1.910690308E0,-2.574586868E-1,5.119966582E0
1.076716861E1,2.445969105E0,-5.248766899E0,2.500743866E-1,5.796106971E0
1.078631705E1,-8.271075487E-1,-4.112515450E0,3.404005289E0,5.402234929E0
1.080545215E1,-4.636633694E-1,-5.273208618E-1,4.232597828E0,4.290446991E0
1.082457403E1,1.948026657E0,2.888755798E-1,-7.559480667E-1,2.109434625E0
1.084372246E1,7.215833664E-1,-1.191865826E1,-1.203182602E1,1.695110423E1
1.086285767E1,-1.154234695E1,-2.086978149E1,-9.410436630E0,2.563844516E1
1.088197944E1,-1.169624138E1,-1.441585541E0,4.442443848E0,1.259426610E1
1.090112798E1,-8.226315498E0,6.481687546E0,-3.162810802E-1,1.047781341E1
1.092026309E1,-3.402430058E0,3.195128441E0,-7.100941539E-1,4.721187325E0
1.093938496E1,-2.665328681E-1,-2.374143600E0,3.609764576E-2,2.389330585E0
1.095853340E1,1.294336557E0,-4.176518440E0,-4.393816888E-1,4.394504486E0
1.097766861E1,1.494072378E-1,-2.045130730E0,-1.162888527E0,2.357369710E0
1.099680372E1,-1.039636135E0,1.024054527E0,-3.395638764E-1,1.498277209E0
1.101593892E1,-1.668770075E0,1.596197128E0,-4.090296030E-1,2.345195952E0
1.103507403E1,-1.720142603E0,2.731448650E0,-1.754750967E0,3.674078559E0
1.105419590E1,-8.671122789E-1,4.642889023E0,5.755053759E-1,4.758099265E0
1.107334434E1,6.294199824E-1,5.639228821E0,1.542840004E0,5.880257349E0
1.109246622E1,1.671574712E0,6.844067097E0,1.769701123E0,7.264107551E0
1.111161465E1,1.932712078E0,8.043493271E0,2.310388565E0,8.589007818E0
1.113074986E1,1.778594255E0,7.892404079E0,1.811869860E0,8.290736521E0
1.114988496E1,1.486413717E0,5.320940971E0,7.322021127E-1,5.572966759E0
1.116902017E1,4.582364559E-1,1.848567486E0,6.394593716E-1,2.009002411E0
1.118814194E1,-5.493050814E-1,-1.725234985E0,2.332816601E0,2.952999343E0
1.120729049E1,-3.823951483E-1,-3.813543320E0,2.591442823E0,4.626544565E0
1.122642569E1,8.930462003E-1,-5.003846169E0,2.814965963E0,5.810339178E0
1.124554747E1,2.960040092E0,-4.782996178E0,3.916841984E0,6.854235254E0
1.126469601E1,4.220013618E0,-3.697030067E0,3.762092352E0,6.754989646E0
1.128381778E1,5.003390789E0,-2.036688805E0,1.615121961E0,5.638318865E0
1.130296632E1,5.547639847E0,-1.386445045E0,-1.789563775E0,5.991750682E0
1.132210142E1,4.434670448E0,-5.744123459E-1,-4.105432034E0,6.070487930E0
1.134122330E1,-8.439666033E-2,-8.315544128E-1,-4.664475441E0,4.738769532E0
1.136037174E1,-2.282084465E0,-3.591384888E0,-7.511734962E0,8.633198542E0
1.137950694E1,-4.055111885E0,-6.428827286E0,-7.868812084E0,1.094038191E1
1.139862872E1,-6.193306923E0,-1.039634609E1,-3.011470795E0,1.247036563E1
1.141777726E1,-6.320014954E0,-7.757817268E0,1.507303715E-1,1.000744910E1
1.143691236E1,-2.423871040E0,-2.398126602E0,-4.403288364E0,5.569121155E0
1.145603424E1,2.467823267E0,-2.924182892E0,-5.091852665E0,6.369298299E0
1.147518267E1,3.802795887E0,6.933202744E-1,-3.288040161E0,5.074756907E0
1.149431788E1,4.417359352E0,3.185102463E0,-1.433778048E0,5.631488332E0
1.151343965E1,4.077936649E0,5.746645927E0,1.282846451E0,7.162346106E0
1.153258819E1,2.854384422E0,7.811643600E0,2.408909082E0,8.658644763E0
1.155170996E1,1.021071434E0,8.353177071E0,2.809728384E-1,8.420041555E0
1.157085851E1,-6.457716823E-1,8.657856941E0,1.170396805E-2,8.681914815E0
1.158999372E1,-1.460714936E0,8.182169914E0,-4.693403244E-1,8.324774650E0
1.160912882E1,-1.508008718E0,6.651735306E0,-2.798085213E-1,6.826270261E0
1.162826403E1,-5.864883065E-1,4.389158726E0,8.478306532E-1,4.508602851E0
1.164738580E1,1.074496984E0,1.385044098E0,1.666169286E0,2.418472868E0
1.166653434E1,2.647980690E0,-2.447254181E0,2.020485878E0,4.133184964E0
1.168566944E1,2.851995945E0,-6.911055565E0,2.560062408E-1,7.480782652E0
1.170479132E1,2.027333379E-1,-7.959358215E0,1.542874813E0,8.110052201E0
1.172393976E1,-7.854037881E-1,-3.805041313E0,5.029557228E0,6.355442110E0
1.174307496E1,1.631353140E0,-1.240439415E0,2.249704599E0,3.043217671E0
1.176219684E1,2.602394581E0,-6.217583656E0,-3.386084080E0,7.542968214E0
1.178134528E1,-1.930142164E0,-1.592340088E1,-1.094387054E1,1.941773537E1
1.180048049E1,-8.150833130E0,-5.443715096E0,-4.565353394E0,1.081261145E1
1.181960226E1,-6.779122829E0,1.976837158E0,-1.948509216E0,7.325372322E0
1.183875080E1,-3.977379799E0,2.045791149E0,-3.317158520E-1,4.484957848E0
1.185788590E1,-3.255662441E0,-3.930418968E0,1.146483421E-2,5.103691080E0
1.187702111E1,-2.650415182E0,-5.648118019E0,-1.167989373E-1,6.240158635E0
1.189615622E1,-2.973633528E0,-2.326986313E0,-1.317925572E0,3.999286120E0
1.191529142E1,-1.899173498E0,6.672382355E-1,-3.157553077E-1,2.037588833E0
1.193441330E1,-6.966621280E-1,2.842738152E0,1.268535495E0,3.189934266E0
1.195356174E1,2.138674259E-2,4.558382511E0,1.066334009E0,4.681493002E0
1.197269694E1,1.085062146E0,5.975419998E0,1.133038521E0,6.177926861E0
1.199183205E1,1.084945083E0,7.305807114E0,1.314413190E0,7.501973437E0
1.201096726E1,5.004261732E-1,7.955247879E0,2.097367346E-1,7.973730913E0
1.203010236E1,3.018312454E-1,7.666328430E0,2.510078847E-1,7.676372754E0
1.204922424E1,3.945900202E-1,6.515065193E0,6.700899601E-1,6.561310563E0
1.206837267E1,8.988246322E-1,4.406326294E0,3.766114116E-1,4.512807694E0
1.208750788E1,6.853435040E-1,2.355678558E0,8.625303507E-1,2.600552979E0
1.210662976E1,3.189200163E-1,1.462516785E-1,1.506935596E0,1.547240906E0
1.212577819E1,8.655958176E-1,-1.376630783E0,2.631672144E0,3.093552441E0
1.214491340E1,2.157968760E0,-2.754978180E0,4.134013176E0,5.416345528E0
1.216403517E1,3.417510509E0,-3.980796814E0,4.147455692E0,6.687862893E0
1.218318372E1,4.432163715E0,-4.979490280E0,3.615416050E0,7.583576456E0
1.220231892E1,5.483579159E0,-4.815635681E0,1.021643400E0,7.369107316E0
1.222144069E1,6.602195740E0,-3.318590164E0,-2.287213802E0,7.735203697E0
1.224058924E1,6.198245525E0,-1.473698616E0,-3.426871777E0,7.234188647E0
1.225972434E1,1.796123505E0,4.201698303E-1,-3.025611877E0,3.543575816E0
1.227884622E1,-1.368947744E0,-1.429255486E0,-4.213218689E0,4.654889998E0
1.229799465E1,-3.235013008E0,-4.621888161E0,-7.260769844E0,9.194886517E0
1.231712986E1,-6.805821419E0,-7.860304832E0,-6.721629143E0,1.238078736E1
1.233625174E1,-6.534037590E0,-1.228078938E1,-2.520369291E0,1.413731574E1
1.235540017E1,-5.415803909E0,-7.007487297E0,-4.434052467E0,9.904374361E0
1.237453538E1,-2.366742134E0,-3.461534500E0,-4.267200470E0,5.982699163E0
1.239365715E1,2.616419315E0,-2.341678619E0,-4.212737083E0,5.484182940E0
1.241280569E1,4.395538330E0,2.820957184E0,-8.942373991E-1,5.298888296E0
1.243194090E1,4.969423294E0,5.655395508E0,1.450868130E0,7.667051882E0
1.245106267E1,4.386073589E0,7.585681915E0,1.395503759E0,8.872859877E0
1.247019788E1,2.654084206E0,8.362704277E0,1.530953646E0,8.906335097E0
1.248934632E1,6.471269131E-1,8.836353302E0,9.811487198E-1,8.914177793E0
1.250848153E1,-5.518319011E-1,9.422298431E0,-2.162940502E-1,9.440922057E0
1.252760340E1,-1.845837116E0,9.589542389E0,-7.367563248E-2,9.765852036E0
1.254675184E1,-2.105035543E0,7.270162582E0,1.846608520E0,7.790789539E0
1.256588705E1,2.621657252E-1,2.544532299E0,4.775829315E-1,2.602203094E0
1.258500892E1,3.670210838E0,-2.166653633E0,-8.849748969E-1,4.352931901E0
1.260415736E1,4.908789635E0,-7.947315216E0,-2.431262493E0,9.652309161E0
1.262329257E1,3.127444267E0,-1.307704163E1,3.474862576E-1,1.345030379E1
1.264241434E1,-3.755562305E-1,-7.100023270E0,4.866647243E0,8.616009999E0
1.266156288E1,-1.071665883E-1,-2.791080475E-1,5.636039734E0,5.643964020E0
1.268069809E1,1.347554207E0,3.548927307E-1,5.853477716E-1,1.511450695E0
1.269981986E1,-6.151815653E-1,-1.051267719E1,-7.815367222E0,1.311391608E1
1.271896840E1,-6.010800838E0,-1.054069519E1,-7.964254856E0,1.451431491E1
1.273810361E1,-7.972451687E0,1.488000870E0,-2.476360321E0,8.479769627E0
1.275722538E1,-5.785787582E0,1.112812042E0,-1.950354457E0,6.206252581E0
1.277637392E1,-3.118146420E0,-6.844053268E-1,9.475481510E-2,3.193779300E0
1.279550903E1,-2.354988575E0,-3.701204300E0,3.092586994E-3,4.386900275E0
1.281464424E1,-2.598121166E0,-3.243575096E0,-4.471501112E-1,4.179827296E0
1.283376611E1,-2.483024836E0,-1.353508949E0,-9.536913037E-1,2.984447338E0
1.285291455E1,-1.109627366E0,1.093672752E0,7.696089149E-2,1.559908959E0
1.287204976E1,-2.885112166E-1,2.958737850E0,1.230533719E0,3.217387391E0
1.289117163E1,8.565614223E-1,4.607264996E0,9.011130929E-1,4.772063811E0
1.291032007E1,1.376977205E0,5.996211052E0,6.492692232E-1,6.186450010E0
1.292945528E1,1.248921752E0,6.883684635E0,2.609042525E-1,7.000927848E0
1.294859048E1,9.467391372E-1,7.356832981E0,-8.013558388E-2,7.417932880E0
1.296772559E1,3.968068957E-1,7.182835579E0,6.750976443E-1,7.225395456E0
1.298686080E1,4.725968838E-1,6.166590691E0,8.524144888E-1,6.243140157E0
1.300598267E1,2.588083148E-1,4.371345997E0,1.135611415E0,4.523854646E0
1.302513111E1,-4.833596945E-1,2.331647396E0,1.577730417E0,2.856475003E0
1.304426632E1,-9.723984003E-1,-1.515483856E-2,2.483841658E0,2.667444038E0
1.306338819E1,-5.606408715E-1,-2.271959305E0,3.042348385E0,3.838228884E0
1.308253663E1,6.587189436E-1,-4.735679626E0,3.595509291E0,5.982328914E0
1.310167184E1,2.575754404E0,-5.413452148E0,4.742260933E0,7.643887340E0
1.312079372E1,3.906415939E0,-4.139990807E0,5.261410236E0,7.751260997E0
1.313994215E1,4.529134274E0,-1.945579529E0,2.341481209E0,5.457185284E0
1.315907736E1,4.807423592E0,-4.105606079E-1,-2.281232119E0,5.337031158E0
1.317819924E1,3.919960499E0,3.872184753E-1,-5.278169632E0,6.585977765E0
1.319734767E1,-2.356623113E-1,6.646966934E-1,-6.342864990E0,6.381950697E0
1.321648288E1,-2.397857904E0,-2.670493126E0,-8.234360695E0,8.982535951E0
1.323560476E1,-3.468411922E0,-6.595703125E0,-7.977723122E0,1.091683320E1
1.325475319E1,-3.127001286E0,-1.252319813E1,-3.643699884E0,1.341212799E1
1.327388840E1,-2.985115051E0,-1.243962002E1,-9.400238991E-1,1.282726405E1
1.329301028E1,-2.344918728E0,-6.678416252E0,-9.794477224E-1,7.145572428E0
1.331215872E1,1.151929259E0,-2.985261917E0,-2.136039257E0,3.847257912E0
1.333129392E1,4.147160530E0,1.213280678E0,-3.804916382E0,5.757462908E0
1.335041580E1,4.994305134E0,4.002113819E0,-2.515866995E0,6.876742363E0
1.336956424E1,3.934731007E0,5.541050434E0,1.676846743E0,6.999797355E0
1.338869944E1,2.706592560E0,7.270209789E0,1.177829742E0,7.846583751E0
1.340783465E1,1.091335893E0,7.550997734E0,3.994981050E-1,7.639907038E0
1.342696976E1,-3.777452111E-1,8.505637169E0,-3.995361328E-1,8.523390418E0
1.344610496E1,-9.580682516E-1,9.116644859E0,-6.081095934E-1,9.186996546E0
1.346524017E1,-6.063758135E-1,8.939362526E0,2.250092030E-1,8.962729670E0
1.348437538E1,2.078570127E-1,6.747264862E0,7.943259478E-1,6.797039162E0
1.350349715E1,9.411075115E-1,4.586436272E0,2.339924097E0,5.234149960E0
1.352264569E1,3.160349369E0,-1.790306091E0,2.967154264E0,4.690096850E0
1.354178090E1,2.583808422E0,-9.440802574E0,1.095117092E0,9.849065979E0
1.356090267E1,-8.560478091E-1,-1.251184177E1,1.423003912E0,1.262156657E1
1.358005122E1,-3.644021988E0,-1.021086216E1,2.220375299E0,1.106664668E1
1.359918642E1,-4.416617393E0,-9.973965645E0,-4.430226326E0,1.177341943E1
1.361832163E1,-5.082569122E0,-1.180592728E1,-3.380801678E0,1.329068274E1
1.363745674E1,-2.141427517E0,-1.743671417E0,-2.992042542E0,4.071660643E0
1.365657861E1,1.483643055E0,2.480988026E0,-5.360869408E0,6.090600882E0
1.367572715E1,2.412891150E0,2.678306580E0,-2.435193539E0,4.350349113E0
1.369486226E1,-2.502233028E0,-4.942980766E0,-2.300481319E0,5.998870167E0
1.371398413E1,-5.375092506E0,-7.478736877E0,-3.295062184E-1,9.215839576E0
1.373313267E1,-6.390734196E0,-3.104877472E0,7.836406827E-1,7.148135449E0
1.375226788E1,-5.000868320E0,1.698146820E0,1.074237823E-1,5.282416724E0
1.377138965E1,-2.557235241E0,4.353418350E0,1.455904007E0,5.254651262E0
1.379053819E1,-1.466535926E0,5.348870754E0,2.288518667E0,5.999871970E0
1.380967340E1,-2.417228222E-1,6.120063305E0,1.460897446E0,6.296651977E0
1.382880851E1,8.809362650E-1,6.869071960E0,1.128731251E0,7.016710949E0
1.384794372E1,1.268159866E0,7.722621918E0,6.424742937E-1,7.852381292E0
1.386707892E1,1.320993066E0,7.883843422E0,-1.567134857E-1,7.995284166E0
1.388621413E1,7.746397853E-1,6.940554619E0,5.772727132E-1,7.007468088E0
1.390534924E1,9.007218480E-1,4.570018768E0,6.034324765E-1,4.696860882E0
1.392447111E1,1.087968588E0,1.621012688E0,6.406292915E-1,2.054693084E0
1.394361965E1,1.488073707E0,-1.147775650E0,1.803711653E0,2.604827830E0
1.396275486E1,2.053725481E0,-2.032118797E0,3.799837112E0,4.773474336E0
1.398188996E1,2.770004034E0,-2.346261978E0,4.212966442E0,5.561200757E0
1.400102517E1,3.272102833E0,-3.290096283E0,3.823802233E0,6.012724342E0
1.402014705E1,3.857505322E0,-4.985712051E0,3.414156199E0,7.168970255E0
1.403929559E1,4.926322937E0,-5.590259552E0,1.040534616E0,7.523454780E0
1.405843069E1,5.896395683E0,-2.884026527E0,-1.902801871E0,6.834160228E0
1.407755257E1,5.040934086E0,6.378812790E-1,-3.122691631E0,5.963984575E0
1.409670111E1,1.209089398E0,2.372006416E0,-2.876665592E0,3.919632195E0
1.411583632E1,-9.569482207E-1,7.990436554E-1,-3.680610657E0,3.886015371E0
1.413495809E1,-2.142812252E0,-2.338511467E0,-5.668780327E0,6.495794841E0
1.415410663E1,-2.600778580E0,-6.624270439E0,-5.961478710E0,9.283546547E0
1.417324184E1,-2.895922661E0,-1.129471970E1,-4.186001778E0,1.238869129E1
1.419236372E1,-3.953143597E0,-1.249818325E1,-3.150680304E0,1.348179199E1
1.421151215E1,-4.513542652E0,-7.079139709E0,-3.616159439E0,9.141274276E0
1.423064736E1,-7.109911442E-1,-2.236529350E0,-4.182471275E0,4.795898030E0
1.424976924E1,3.176230431E0,1.267685890E0,-2.937554121E0,4.508291415E0
1.426891778E1,4.362849236E0,4.485689163E0,6.139278412E-1,6.287508896E0
1.428805288E1,4.485370636E0,6.556459427E0,8.828237057E-1,7.992814752E0
1.430718809E1,3.560694933E0,7.811639786E0,1.267221451E0,8.677909584E0
1.432630996E1,1.565496564E0,7.380667686E0,-1.702642441E-2,7.544887334E0
1.434545851E1,-5.575613976E-1,7.597398758E0,-5.980864763E-1,7.641272802E0
1.436459361E1,-1.281536102E0,7.015868187E0,-1.483758688E0,7.284660668E0
1.438372882E1,-9.450261593E-1,6.050143242E0,-2.958186865E-1,6.130645674E0
1.440286403E1,-1.934023380E0,6.136185646E0,4.335998058E0,7.758485669E0
1.442198590E1,1.120706320E0,1.583169460E0,1.498160839E0,2.450896590E0
1.444113444E1,3.940150738E0,-4.325922012E0,-1.450380564E0,6.028432041E0
1.446026955E1,3.020604134E0,-9.030404091E0,-1.505981326E0,9.640551184E0
1.447939142E1,-3.602497578E-1,-7.801239967E0,1.779629707E0,8.009756976E0
1.449853996E1,-6.481077671E-1,-2.871539116E0,4.854221344E0,5.677080714E0
1.451767517E1,7.612876892E-1,-2.410107613E0,1.374958992E0,2.877271256E0
1.453679694E1,-6.664013863E-1,-1.060858250E1,-6.104818821E0,1.225785162E1
1.455594548E1,-6.570383549E0,-9.269930840E0,-6.816508293E0,1.325014502E1
1.457508069E1,-5.761923790E0,5.835628510E-1,-5.552053452E0,8.022818014E0
1.459420257E1,-3.218953133E0,8.425035477E-1,-4.840246439E-1,3.362402616E0
1.461335111E1,-2.954573154E0,-3.108489037E0,-1.885521412E-1,4.292756518E0
1.463248622E1,-3.269214630E0,-5.307147026E0,6.659132242E-2,6.233619194E0
1.465162142E1,-3.252773285E0,-3.702688217E0,-8.852943778E-1,5.007412527E0
1.467075663E1,-2.683635712E0,-1.683817863E0,-9.381681681E-1,3.304134189E0
1.468987851E1,-1.195587993E0,1.028098106E0,4.602013826E-1,1.642620369E0
1.470902705E1,-8.989388943E-1,3.027849197E0,1.952758670E0,3.713385022E0
1.472816215E1,-6.061572433E-1,4.709292889E0,1.175596833E0,4.891512448E0
1.474728403E1,-4.841780663E-2,6.082783699E0,5.150183439E-1,6.104739610E0
1.476643257E1,5.864783525E-1,7.026966095E0,1.231273115E-1,7.052472594E0
1.478556778E1,1.211672664E0,7.832392216E0,-4.978829622E-2,7.925717465E0
1.480470298E1,8.339740634E-1,8.320836067E0,8.202612400E-1,8.402657562E0
1.482383809E1,1.050112486E0,7.541582108E0,1.448538780E0,7.750900691E0
1.484297330E1,6.443911195E-1,5.621411324E0,1.511947870E0,5.856747523E0
1.486210851E1,-8.894205093E-4,3.055155277E0,1.578854680E0,3.439005185E0
1.488123038E1,-7.122919559E-1,-1.327791214E-1,1.819632292E0,1.958584132E0
1.490037892E1,-2.929018736E-1,-3.080398560E0,2.281102896E0,3.844226478E0
1.491951403E1,1.434190750E0,-5.663058281E0,2.947758436E0,6.543425097E0
1.493863590E1,3.400626659E0,-6.404544830E0,4.157403946E0,8.358616137E0
1.495778444E1,4.819048405E0,-5.543343544E0,4.276207447E0,8.499284400E0
1.497691965E1,5.922708511E0,-3.274303436E0,6.561077833E-1,6.799265881E0
1.499604153E1,6.743481159E0,-2.015704155E0,-3.581142426E0,7.896972993E0
1.501519007E1,4.473405838E0,-4.811191559E-1,-4.483923912E0,6.352039758E0
1.503432517E1,-4.963647127E-1,-1.254384041E0,-4.991765976E0,5.170839855E0
1.505344705E1,-2.283293724E0,-4.507614136E0,-7.836817741E0,9.324576545E0
1.507259559E1,-3.930373192E0,-7.445118904E0,-7.523962021E0,1.129104218E1
1.509173080E1,-4.998064041E0,-1.115154743E1,-4.044330597E0,1.287222841E1
1.511085267E1,-2.843680382E0,-6.382465363E0,-1.714357734E0,7.194539920E0
1.513000122E1,-2.843130589E0,-2.000245094E0,-2.462568283E0,4.260119075E0
1.514913642E1,3.474182487E-1,-1.855626106E0,-3.915262461E0,4.346645583E0
1.516825830E1,3.209975481E0,2.531776428E0,-3.477922916E0,5.367474479E0
1.518740674E1,3.766913652E0,4.488060474E0,-1.294610858E0,6.000695173E0
1.520654194E1,3.106148481E0,6.879504204E0,1.951252937E0,7.796353282E0
1.522567715E1,2.708873272E0,8.092982292E0,1.110676527E0,8.606274405E0
1.524481236E1,1.553887010E0,8.195816040E0,6.703869104E-1,8.368714597E0
1.526394757E1,8.992069960E-2,8.151186943E0,2.057664394E-1,8.154279499E0
1.528308278E1,-7.271501422E-1,6.995891094E0,-3.650695086E-1,7.043047301E0
1.530221798E1,-4.378665686E-1,4.936760426E0,-1.478736401E-1,4.958346221E0
1.532133986E1,2.611075044E-1,2.434277058E0,3.798067570E-1,2.477526003E0
1.534048840E1,1.269484520E0,-9.969425201E-1,1.911106110E0,2.501561892E0
1.535962361E1,1.851409316E0,-5.684370041E0,2.552819490E0,6.500512793E0
1.537874549E1,9.893254042E-1,-8.691096306E0,-9.888463020E-1,8.802939098E0
1.539789403E1,-1.986392498E0,-6.203620911E0,3.795140982E0,7.538817058E0
1.541702924E1,-1.284420371E0,-1.442026138E0,4.907295227E0,5.273587159E0
1.543615111E1,1.162182927E0,8.181943893E-1,3.181928396E-1,1.456488207E0
1.545529965E1,1.809331179E0,-5.733337402E0,-4.578505516E0,7.556953741E0
1.547443486E1,-2.769056797E0,-1.471978664E1,-9.707763672E0,1.784882265E1
1.549355674E1,-7.404973030E0,-3.433206558E0,-4.510870934E0,9.325689756E0
1.551270528E1,-6.699257374E0,2.455249310E0,-2.477120399E0,7.552775914E0
1.553184049E1,-3.599513054E0,1.312635422E0,-7.867866755E-2,3.832192102E0
1.555096236E1,-2.703421593E0,-3.334128380E0,-4.588749409E-1,4.316881580E0
1.557011090E1,-2.684787750E0,-4.992561340E0,9.798157215E-2,5.669510948E0
1.558923278E1,-2.730824232E0,-2.298901558E0,-1.002404571E0,3.707716856E0
1.560838132E1,-1.708506823E0,6.742238998E-1,-4.179133773E-1,1.883673279E0
1.562751653E1,-8.635182381E-1,2.866861343E0,1.503072619E0,3.350191787E0
1.564663840E1,6.236076355E-3,4.791930676E0,1.353597760E0,4.979444285E0
1.566578694E1,6.298878193E-1,6.491702557E0,9.126055837E-1,6.585727727E0
1.568492215E1,1.024523735E0,7.822035789E0,1.136733055E0,7.970323382E0
1.570405736E1,1.298459291E0,8.676759720E0,1.719110608E-1,8.775061776E0
1.572319257E1,1.046034098E0,8.249658585E0,-1.867876053E-1,8.317808828E0
1.574231444E1,8.008646369E-1,6.210570335E0,3.347711265E-1,6.270936115E0
1.576146299E1,2.032923698E-1,4.212186337E0,8.737211227E-1,4.306649524E0
1.578059819E1,-6.528196335E-1,1.116674423E0,1.807147741E0,2.222367701E0
1.579972007E1,-1.245287776E0,-1.386698723E0,2.674027443E0,3.259462802E0
1.581886872E1,-1.813936234E-1,-2.974084854E0,2.278800011E0,3.751135009E0
1.583800392E1,1.470291138E0,-4.817613602E0,2.820045233E0,5.772678058E0
1.585712580E1,2.904852152E0,-5.901385307E0,4.554424763E0,8.000456205E0
1.587627434E1,4.260186195E0,-5.318939209E0,4.221316338E0,8.016221825E0
1.589540955E1,5.347681999E0,-3.162778854E0,2.066935539E0,6.547754987E0
1.591453142E1,6.039019585E0,-9.374637604E-1,-6.862468719E-1,6.149758582E0
1.593367997E1,5.244405270E0,7.922401428E-1,-2.959520578E0,6.073729754E0
1.595281528E1,9.524713755E-1,1.617015839E0,-4.690621376E0,5.052115481E0
1.597193715E1,-1.260392547E0,-1.666374207E-1,-7.644623756E0,7.749621267E0
1.599108569E1,-1.766947627E0,-4.278562546E0,-9.284237862E0,1.037426017E1
1.601022090E1,-2.610080719E0,-1.150581741E1,-5.101980209E0,1.285404830E1
1.602934278E1,-3.611546516E0,-1.548682880E1,-1.438297629E0,1.596727387E1
1.604849142E1,-3.550743818E0,-9.101063728E0,-2.529206276E0,1.009128471E1
1.606762663E1,-1.693903446E0,-1.649933815E0,-1.929976344E0,3.052277702E0
1.608674851E1,1.990505219E0,1.060135841E0,-4.113667965E0,4.691296532E0
1.610589705E1,3.634483337E0,3.656851768E0,-2.386026621E0,5.681122866E0
1.612503236E1,3.790471792E0,5.250318527E0,4.581191540E-1,6.491794375E0
1.614416757E1,3.065494061E0,6.786848068E0,1.778003216E0,7.656360491E0
1.616330278E1,1.636927128E0,7.288094521E0,4.290626049E-1,7.481974798E0
1.618243798E1,-1.270717829E-1,8.240187645E0,-5.008339882E-2,8.241319555E0
1.620157330E1,-9.685722589E-1,8.470817566E0,-8.078962564E-1,8.564203338E0
1.622070851E1,-7.113534808E-1,7.670296192E0,-9.463108778E-1,7.761119232E0
1.623984372E1,-4.487705231E-2,5.809514999E0,2.533953190E-1,5.815211747E0
1.625897892E1,6.339452863E-1,3.701683998E0,1.795806170E0,4.162844081E0
1.627810090E1,2.559298038E0,-8.517522812E-1,3.458298445E0,4.385808538E0
1.629724944E1,3.057508945E0,-6.454430580E0,7.492401600E-1,7.181183460E0
1.631638465E1,8.441249132E-1,-1.039331722E1,-3.206031322E-1,1.043246740E1
1.633550663E1,-2.142710209E0,-7.170357704E0,4.692950249E0,8.833403573E0
1.635465517E1,-6.786789298E-1,-1.496438026E0,2.131895065E0,2.691636756E0
1.637379038E1,1.305134058E0,-3.726328850E0,-2.815588474E0,4.849375224E0
1.639291236E1,-1.652444601E0,-1.404499912E1,-7.487060070E0,1.600151999E1
1.641206090E1,-5.957716942E0,-5.292889595E0,-4.863986492E0,9.336350252E0
1.643119622E1,-5.905697823E0,3.367278099E0,-3.437641621E0,7.617953037E0
1.645031809E1,-3.758676529E0,3.663127422E0,-1.313770771E0,5.410373869E0
1.646946663E1,-2.573945761E0,-2.739668846E0,-2.325350046E-2,3.759191787E0
1.648860194E1,-2.036360025E0,-6.311281204E0,-4.479769170E-1,6.646782373E0
1.650773757E1,-2.803929329E0,-4.195199013E0,-2.085224867E0,5.459842231E0
1.652687246E1,-2.449448824E0,-1.216841698E0,-1.596734047E0,3.167027451E0
1.654599434E1,-1.640893579E0,1.218976974E0,2.190725207E-1,2.055828147E0
1.656514288E1,-1.655211091E0,3.352230072E0,1.139917374E0,3.908526811E0
1.658427819E1,-1.185710430E0,5.195818901E0,1.362091184E0,5.500703198E0
1.660341340E1,-7.964867949E-1,6.384903431E0,1.132786512E0,6.533344344E0
1.662254872E1,-3.511667252E-2,7.226938248E0,1.250228137E-1,7.228104891E0
1.664168392E1,4.418696165E-1,7.380227089E0,-5.610950291E-2,7.393655991E0
1.666081924E1,4.638516903E-1,6.623512268E0,4.770588279E-1,6.656850478E0
1.667995444E1,7.595476508E-1,5.794780731E0,9.867433310E-1,5.927061562E0
1.669908976E1,1.225124955E0,4.418263912E0,1.449889898E0,4.808759494E0
1.671821163E1,5.974105597E-1,2.559374809E0,1.531611204E0,3.041896065E0
1.673736028E1,5.585620403E-1,4.770145416E-1,1.397098780E0,1.578423082E0
1.675649549E1,1.250369072E0,-1.404794693E0,2.030714989E0,2.767792317E0
1.677561746E1,2.390225649E0,-3.723519325E0,2.839101553E0,5.257211471E0
1.679476601E1,3.981537104E0,-5.663211823E0,3.438414812E0,7.729637914E0
1.681390132E1,5.346365929E0,-6.168540001E0,3.817879677E0,9.011699041E0
1.683302319E1,6.494567871E0,-3.561807632E0,2.087840080E0,7.695775571E0
1.685217184E1,7.004615307E0,-1.454268456E0,-8.037569523E-1,7.198996984E0
1.687130705E1,4.649276733E0,1.305360794E-1,-3.101299286E0,5.590247854E0
1.689042903E1,7.756920159E-2,2.370166779E-2,-4.890064240E0,4.890736858E0
1.690957757E1,-2.007759333E0,-1.953166008E0,-8.014618874E0,8.489998273E0
1.692871288E1,-3.160705328E0,-4.254347801E0,-8.136649132E0,9.710540277E0
1.694783476E1,-4.129156113E0,-8.785416603E0,-4.206377983E0,1.057956005E1
1.696698340E1,-4.121753693E0,-1.202680779E1,-4.578244686E-1,1.272173582E1
1.698611872E1,-3.710030079E0,-6.657239914E0,-2.089623690E0,7.902511855E0
1.700524059E1,-1.832060695E0,-2.908616066E0,-2.711066723E0,4.377942049E0
1.702438924E1,2.396400690E0,-2.402439117E-1,-4.795113564E0,5.365963799E0
1.704352444E1,3.884886265E0,3.922532082E0,-2.025522709E0,5.880590231E0
1.706264642E1,4.411491394E0,5.984429359E0,3.716344833E-1,7.443974964E0
1.708179507E1,3.759070635E0,7.825158119E0,1.444044828E0,8.800510047E0
1.710093028E1,2.245604753E0,8.308574677E0,5.350471735E-1,8.623307332E0
1.712006559E1,5.797552466E-1,8.127184868E0,3.383593559E-1,8.154859721E0
1.713920090E1,-6.012619138E-1,7.407284737E0,-6.456506252E-1,7.459641264E0
1.715833611E1,-5.941091776E-1,5.910444260E0,-7.609181404E-1,5.988765606E0
1.717747142E1,-6.411117315E-2,4.421144009E0,3.175973892E-1,4.433000416E0
1.719659340E1,4.755324125E-1,2.548734665E0,3.177894354E0,4.101364650E0
1.721574194E1,2.349601030E0,-2.954387665E0,2.306796551E0,4.423837904E0
1.723487726E1,2.289711237E0,-7.473379135E0,-2.491399050E0,8.203733447E0
1.725399924E1,-1.169572830E0,-6.420921326E0,9.590091705E-1,6.596652929E0
1.727314788E1,-2.619180202E0,-3.655657768E0,5.259194374E0,6.919758964E0
1.729228309E1,-6.171886921E-1,-3.559295654E0,1.437097192E0,3.887770026E0
1.731140507E1,-1.689565420E0,-1.125731182E1,-4.846335411E0,1.237209229E1
1.733055372E1,-4.830116272E0,-1.283727169E1,-6.903186798E0,1.535511497E1
1.734968903E1,-3.405366421E0,6.687135696E-1,-5.150037766E0,6.210200261E0
1.736881090E1,-2.802047133E-1,2.763737679E0,-2.525573730E0,3.754368563E0
1.738795955E1,-1.381966233E0,-6.106271744E-1,-1.420496345E0,2.073766159E0
1.740708153E1,-3.009874582E0,-6.263660431E0,-1.178167939E0,7.048465556E0
1.742623017E1,-4.533439636E0,-4.726460457E0,-2.081174254E-1,6.552466425E0
1.744536538E1,-4.637403488E0,-1.086857796E0,-2.317005396E-1,4.768695432E0
1.746448736E1,-2.831532955E0,1.762238503E0,-3.969422281E-1,3.358664399E0
1.748363601E1,-1.579054594E0,3.651034832E0,1.546222210E0,4.267818164E0
1.750277132E1,-7.022626996E-1,5.076492310E0,2.459221840E0,5.684339814E0
1.752190663E1,2.925268412E-1,6.125557899E0,1.128296494E0,6.235469871E0
1.754104184E1,1.130566835E0,6.800285339E0,4.092668891E-1,6.905762916E0
1.756017715E1,1.288547754E0,7.491633415E0,2.029173821E-1,7.604347573E0
1.757931246E1,9.561039209E-1,7.337600231E0,2.777701020E-1,7.404840855E0
1.759844778E1,6.560723782E-1,5.798126221E0,4.935083985E-1,5.855958434E0
1.761758309E1,1.533095837E-1,3.856142998E0,1.040387154E0,3.996967360E0
1.763670507E1,-1.981198788E-2,1.570799828E0,1.086938500E0,1.910298384E0
1.765585361E1,-2.001926899E-1,-4.168958664E-1,2.356864929E0,2.401810061E0
1.767498892E1,6.819059849E-1,-1.530743599E0,2.629021168E0,3.117679271E0
1.769412424E1,2.024877071E0,-2.806324005E0,2.980155945E0,4.566936723E0
1.771325955E1,3.479268074E0,-3.724261284E0,4.266997337E0,6.647006448E0
1.773239486E1,4.454325199E0,-4.793745995E0,4.746014595E0,8.083666753E0
1.775153017E1,5.336453438E0,-4.547857285E0,1.629788160E0,7.198399171E0
1.777066549E1,6.564178467E0,-2.729402542E0,-2.936645269E0,7.691681391E0
1.778978746E1,5.619717598E0,-9.284734726E-1,-4.835189819E0,7.471435569E0
1.780893611E1,7.509453297E-1,4.910001755E-1,-4.562614918E0,4.649995156E0
1.782807132E1,-1.616811872E0,-1.012238503E0,-5.745403767E0,6.053789875E0
1.784719330E1,-3.269633293E0,-3.361410141E0,-7.140347958E0,8.542490794E0
1.786634194E1,-4.991193771E0,-7.567720413E0,-4.533069134E0,1.013563630E1
1.788547726E1,-5.195509911E0,-1.131591988E1,-1.710210323E0,1.256853950E1
1.790459924E1,-3.653807640E0,-7.190562248E0,-2.888035536E0,8.567102484E0
1.792374788E1,-2.775774479E0,-3.657848358E0,-4.144667149E0,6.185712921E0
1.794288319E1,2.059388161E0,-2.661733627E0,-5.696499825E0,6.616344591E0
1.796200517E1,4.133111954E0,2.022299290E0,-2.304127216E0,5.145999521E0
1.798115382E1,4.370411396E0,5.389919758E0,2.245253086E0,7.293345747E0
1.800028913E1,3.782717466E0,7.355579376E0,6.135146618E-1,8.293967665E0
1.801942444E1,2.216018438E0,8.639288902E0,4.574055672E-1,8.930692600E0
1.803855976E1,2.498627305E-1,8.305388451E0,4.035022259E-1,8.318937597E0
1.805769507E1,-7.031767368E-1,8.006809235E0,-5.082050562E-1,8.053677671E0
1.807683038E1,-7.586086988E-1,7.305007935E0,-1.332236528E0,7.464146452E0
1.809596569E1,-1.706538200E0,6.025754452E0,1.924460649E0,6.551758400E0
1.811510101E1,-1.092094421E0,3.048479557E0,1.718699455E0,3.666036777E0
1.813422298E1,2.423329830E0,-8.958797455E-1,-1.261983156E0,2.875365972E0
1.815337163E1,3.969624996E0,-5.870681763E0,-9.456465244E-1,7.149620572E0
1.817250694E1,2.521829128E0,-9.641833305E0,-4.135457277E-1,9.974747702E0
1.819162892E1,-5.717906952E-1,-6.877900124E0,1.828995228E0,7.139865423E0
1.821077757E1,-2.071931362E-1,-4.737395287E0,3.186673164E0,5.713206539E0
1.822989955E1,-2.261562347E-1,-8.580377579E0,1.424439669E0,8.700750221E0
1.824904819E1,-4.002498150E0,-1.229994774E1,-3.194757462E0,1.332348232E1
1.826818351E1,-4.665799618E0,-1.492623329E0,-7.906222820E0,9.300858550E0
1.828730559E1,-8.570649624E-1,3.413263798E0,-5.707983494E0,6.705669666E0
1.830645424E1,8.218765259E-3,1.583168030E0,-1.058534145E0,1.904463992E0
1.832558955E1,-3.019476891E0,-4.252143860E0,-7.485659719E-1,5.268616432E0
1.834471153E1,-4.821213722E0,-5.715024948E0,4.794725180E-1,7.492363166E0
1.836386017E1,-4.972677231E0,-2.721837997E0,-5.509201288E-1,5.695562651E0
1.838298215E1,-3.703135490E0,3.437871933E-1,-5.703246593E-1,3.762535357E0
1.840213080E1,-2.178291798E0,2.584379673E0,4.883135557E-1,3.415029074E0
1.842126611E1,-1.231742144E0,3.867542267E0,1.900474191E0,4.481838244E0
1.844040142E1,-4.286473393E-1,5.371976376E0,1.312151790E0,5.546495384E0
1.845953674E1,2.398442924E-1,6.033228874E0,6.743522882E-1,6.075535116E0
1.847867215E1,5.206523538E-1,6.232889175E0,1.151198298E-1,6.255656554E0
1.849780746E1,2.051885724E-1,6.366942883E0,-8.214622736E-3,6.370253645E0
1.851694278E1,4.297405481E-1,5.966629982E0,3.204866350E-1,5.990664568E0
1.853607809E1,7.694980502E-1,5.340419292E0,6.504111886E-1,5.434633399E0
1.855521340E1,9.259686470E-1,3.822484016E0,8.663875461E-1,4.027335269E0
1.857433538E1,7.027187943E-1,2.138069630E0,1.458294868E0,2.681749311E0
1.859348403E1,4.937766194E-1,5.130882263E-1,2.842995644E0,2.930818846E0
1.861260611E1,8.003417253E-1,-7.716159821E-1,3.271134138E0,3.454888804E0
1.863175476E1,1.855536461E0,-2.271468163E0,2.848426342E0,4.088534676E0
1.865089007E1,3.064667225E0,-4.225589752E0,2.723841429E0,5.887877893E0
1.867001205E1,4.147112846E0,-6.263579369E0,2.683634281E0,7.977021024E0
1.868916069E1,5.572550774E0,-5.259943008E0,3.903707564E-1,7.672855525E0
1.870829611E1,6.201275826E0,-2.290855408E0,-1.592323303E0,6.799951019E0
1.872741809E1,3.921274900E0,3.735599518E-1,-2.295852900E0,4.559263583E0
1.874656674E1,-3.525634110E-1,7.116022110E-1,-2.940543175E0,3.045894422E0
1.876570205E1,-2.285314560E0,-1.169081688E0,-5.918446064E0,6.451156365E0
1.878482403E1,-3.850904465E0,-3.854974747E0,-8.075286865E0,9.741691509E0
1.880397278E1,-4.331533909E0,-9.551591873E0,-5.642039299E0,1.190914358E1
1.882310809E1,-4.012343407E0,-1.227437687E1,-3.377143621E0,1.334782103E1
1.884223007E1,-3.578822136E0,-7.183246613E0,-3.356424809E0,8.698999211E0
1.886137872E1,-9.031295776E-1,-3.352749825E0,-2.230125666E0,4.126746285E0
1.888051413E1,3.155752182E0,-1.001482010E0,-4.578346729E0,5.650043967E0
1.889963611E1,4.424062252E0,3.334075928E0,-2.292613983E0,5.995370545E0
1.891878476E1,4.453178406E0,6.283200264E0,2.624373913E0,8.136138022E0
1.893792007E1,3.394968271E0,8.146674156E0,5.903632641E-1,8.845486881E0
1.895704215E1,1.289292693E0,8.558216095E0,7.632422447E-1,8.688375976E0
1.897619080E1,-7.267060280E-1,8.118447304E0,6.037105322E-1,8.173234041E0
1.899532611E1,-1.651499867E0,7.142820358E0,-6.804188490E-1,7.362764718E0
1.901444809E1,-2.609822035E0,6.470135212E0,1.449181676E0,7.125584063E0
1.903359684E1,-1.665826559E0,3.387455940E0,9.793682098E-1,3.899871532E0
1.905273215E1,1.422189593E0,-4.103002548E-1,-7.297922969E-1,1.650323100E0
1.907185413E1,3.535137177E0,-2.490728378E0,-2.712423801E-1,4.332954551E0
1.909100288E1,2.996925354E0,-5.066126823E0,1.209124565E0,6.009091843E0
1.911013819E1,7.522878647E-1,-4.902385712E0,1.761264801E0,5.263209705E0
1.912926017E1,-1.199211955E0,-2.934535980E0,3.463868380E0,4.695529244E0
1.914840892E1,3.681535721E-1,-2.412251472E0,1.822052360E0,3.045384872E0
1.916753090E1,5.734982491E-1,-6.119403839E0,-2.353462696E0,6.581397287E0
1.918667955E1,-4.746937752E0,-1.443697262E1,-5.652196884E0,1.621440489E1
1.920581497E1,-7.195497036E0,-4.193447113E0,-6.899704456E0,1.081508659E1
1.922493694E1,-3.483664036E0,3.420969009E0,-3.466538906E0,5.987974287E0
1.924408569E1,-1.447692633E0,1.540910721E0,-1.956196427E-1,2.123319772E0
1.926322101E1,-2.237618923E0,-4.884542465E0,-5.940319300E-1,5.405420194E0
1.928235632E1,-3.016144276E0,-5.981091499E0,-7.350545526E-1,6.738760050E0
1.930149174E1,-3.521994591E0,-2.511485100E0,-1.545228720E0,4.593444797E0
1.932062705E1,-2.809557676E0,-9.087657928E-2,-2.936512232E-1,2.826323394E0
1.933974903E1,-2.155007124E0,1.927795887E0,8.869187832E-1,3.024413598E0
1.935889778E1,-1.458508611E0,4.067079544E0,1.566713333E0,4.595973679E0
1.937803309E1,-8.788684011E-1,5.466231346E0,1.250565171E0,5.675914732E0
1.939716851E1,-5.271742940E-1,6.461888313E0,9.124009013E-1,6.547242833E0
1.941630382E1,-7.380127907E-2,7.277100563E0,3.239852190E-1,7.284682948E0
1.943543924E1,2.012064457E-1,7.059299469E0,2.049020529E-1,7.065138207E0
1.945457455E1,6.410822868E-1,5.907770157E0,4.936044514E-1,5.962917078E0
1.947370986E1,1.242022753E0,4.486847401E0,5.256589651E-1,4.685161413E0
1.949284528E1,1.402267098E0,3.284016609E0,1.184950352E0,3.762343079E0
1.951198059E1,7.527557611E-1,2.090529919E0,2.130174875E0,3.078084076E0
1.953111601E1,5.594742894E-1,9.802703857E-1,2.459510803E0,2.706129136E0
1.955025132E1,6.664820910E-1,-9.517898560E-1,2.586412907E0,2.835424841E0
1.956937340E1,1.765898824E0,-3.225442886E0,2.962181330E0,4.721906257E0
1.958852205E1,3.454787970E0,-4.904329300E0,4.125220776E0,7.280484341E0
1.960765736E1,4.697236061E0,-5.535894394E0,4.500199318E0,8.541776587E0
1.962677944E1,5.532144547E0,-3.336303711E0,1.949843884E0,6.748143219E0
1.964592809E1,5.899312973E0,-1.142382622E0,-1.226650238E0,6.132829886E0
1.966506351E1,4.516240597E0,4.564208984E-1,-3.409727097E0,5.677234189E0
1.968418548E1,2.743098736E-1,6.599779129E-1,-4.644948006E0,4.699612615E0
1.970333424E1,-1.633651972E0,-1.841579437E0,-8.122745514E0,8.487592608E0
1.972246955E1,-2.415453911E0,-4.944072723E0,-8.599996567E0,1.020971173E1
1.974159163E1,-3.477535248E0,-1.154348850E1,-5.036207199E0,1.306555629E1
1.976074028E1,-3.867846012E0,-1.363050270E1,-1.156083465E0,1.421574358E1
1.977987569E1,-3.106789827E0,-5.220832825E0,-1.911922574E0,6.369041242E0
1.979899767E1,-1.303742051E0,-1.723198891E0,-1.505727410E0,2.633699449E0
1.981814642E1,2.562392950E0,4.118347168E-2,-4.530695915E0,5.205262643E0
1.983728174E1,4.005558968E0,3.939738274E0,-1.810808659E0,5.902971142E0
1.985640382E1,4.183312893E0,5.498727322E0,6.280207634E-1,6.937616233E0
1.987555247E1,3.186344624E0,7.525093555E0,2.217724323E0,8.467474609E0
1.989468788E1,1.907548547E0,7.833639145E0,1.055431128E0,8.131333136E0
1.991382319E1,3.203704655E-1,8.199175835E0,2.897441387E-2,8.205483601E0
1.993295861E1,-7.511544228E-1,7.759983063E0,-5.621068478E-1,7.816491170E0
1.995209403E1,-6.556200981E-1,6.052698135E0,-3.251979351E-1,6.096781620E0
1.997122934E1,6.810826063E-2,4.214675426E0,6.490204334E-1,4.264898030E0
1.999035142E1,7.942199111E-1,2.064678669E0,1.122782946E0,2.480791167E0
2.000950007E1,1.690056801E0,-1.448499680E0,1.743218064E0,2.827234078E0
2.002863549E1,1.044687271E0,-5.494283676E0,3.099068165E0,6.393961847E0
2.004775746E1,-1.917174578E0,-6.356565475E0,2.106633663E0,6.965586005E0
2.006690622E1,-3.314754009E0,-4.088839531E0,3.676784277E0,6.420665501E0
2.008604153E1,-1.797996998E0,-3.564047813E0,-6.479942799E-2,3.992421444E0
2.010516361E1,-2.967015982E0,-1.119152164E1,-5.446700096E0,1.279530705E1
2.012431236E1,-4.527044296E0,-1.316555500E1,-5.174923897E0,1.485280465E1
2.014344767E1,-2.066578865E0,4.937162399E-1,-5.457865715E0,5.856859405E0
2.016256976E1,1.257057071E0,3.551367283E0,-3.046899796E0,4.845203858E0
2.018171840E1,2.998093367E-1,4.471874237E-2,-1.262120008E0,1.298010909E0
2.020085382E1,-3.663924694E0,-7.985201836E0,-3.549427390E-1,8.792825306E0
2.021997590E1,-5.976898193E0,-6.440156937E0,1.616502404E-1,8.787779252E0
2.023912455E1,-5.918269157E0,-7.595691681E-1,-4.372304082E-1,5.982810842E0
2.025825996E1,-3.487723589E0,1.985983372E0,-6.860122085E-2,4.014106615E0
2.027738194E1,-1.535710335E0,3.708681583E0,1.430206776E0,4.261245914E0
2.029653069E1,-2.943494320E-1,5.391086578E0,2.017425299E0,5.763719365E0
2.031566611E1,5.827861428E-1,6.422825336E0,2.385162354E0,6.876141683E0
2.033480142E1,1.583739996E0,7.570744991E0,9.502989650E-1,7.792783856E0
2.035393684E1,1.901332736E0,8.314041138E0,-1.242967844E-1,8.529583571E0
2.037307215E1,1.347484350E0,7.289346695E0,-3.779834509E-1,7.422476730E0
2.039220757E1,6.253373027E-1,5.276598930E0,8.858171105E-2,5.314262859E0
2.041134298E1,1.698487997E-1,3.486017704E0,2.357096672E-1,3.498103357E0
2.043046497E1,-6.806433201E-2,8.728733063E-1,8.947874308E-1,1.251872641E0
2.044961372E1,-8.265016079E-1,-8.524866104E-1,2.147365808E0,2.453776323E0
2.046874913E1,-2.444546223E-1,-1.252955437E0,2.836714268E0,3.110723907E0
2.048788444E1,1.216186881E0,-2.315579414E0,3.066764832E0,4.030640779E0
2.050701986E1,2.824319839E0,-3.167858124E0,3.979112864E0,5.817683975E0
2.052615517E1,3.948729038E0,-3.757450104E0,4.897150040E0,7.327548759E0
2.054529059E1,4.795028687E0,-3.476945877E0,1.983401299E0,6.246225536E0
2.056442601E1,5.801046371E0,-2.400705338E0,-2.816046476E0,6.880817021E0
2.058354799E1,6.441799164E0,-1.603648186E0,-5.233288288E0,8.453151500E0
2.060269674E1,2.299292326E0,-1.213464737E-1,-5.675333977E0,6.124613124E0
2.062183215E1,-1.255388021E0,-2.508285522E0,-6.087790012E0,6.702886138E0
2.064095413E1,-2.822922230E0,-5.996525764E0,-6.472856522E0,9.264182787E0
2.066010288E1,-4.953492165E0,-1.000950050E1,-4.035024643E0,1.187470458E1
2.067923830E1,-5.393003941E0,-1.184562111E1,-1.013435721E0,1.305489498E1
2.069836038E1,-3.861885786E0,-2.613402367E0,-3.537170410E0,5.852829082E0
2.071750903E1,-7.528533936E-1,-2.385785103E0,-5.020271778E0,5.609089723E0
2.073664444E1,2.810273409E0,-1.400669098E0,-5.411333084E0,6.256359669E0
2.075576653E1,3.884489298E0,3.093359947E0,-2.838439941E-1,4.973801391E0
2.077491517E1,4.146774769E0,5.028323650E0,1.207295656E0,6.628524913E0
2.079405059E1,3.072728157E0,6.679846764E0,1.671493292E0,7.540285203E0
2.081318601E1,1.862890124E0,7.475950241E0,8.705508709E-1,7.753583071E0
2.083232132E1,6.884889603E-1,7.616900444E0,1.289725304E-1,7.649040681E0
2.085145674E1,1.139365733E-1,7.184896946E0,-4.347444773E-1,7.198939396E0
2.087059215E1,5.284311771E-1,6.143296242E0,-2.364914417E-1,6.170515086E0
2.088971424E1,9.417457581E-1,4.487408638E0,5.839915276E-1,4.622203745E0
2.090886288E1,1.732408404E0,2.308817863E0,1.429642200E0,3.221141976E0
2.092799830E1,2.826238871E0,-1.276467323E0,3.003190994E0,4.316960867E0
2.094712038E1,2.586926222E0,-5.972080231E0,-8.248263597E-1,6.560355789E0
2.096626903E1,-6.736996174E-1,-6.947636604E0,9.966850281E-2,6.980935422E0
2.098540444E1,-3.032886505E0,-3.410959244E0,5.433263779E0,7.096012881E0
2.100452653E1,-1.801543474E0,-2.786411285E0,7.732691765E-1,3.406991629E0
2.102367528E1,-3.097884178E0,-1.211186028E1,-7.921346664E0,1.480006009E1
2.104281059E1,-6.457881927E0,-1.410477829E1,-5.990839005E0,1.662946667E1
2.106193267E1,-3.786318779E0,1.738149643E0,-2.916117668E0,5.085382614E0
2.108108142E1,-1.279506922E0,3.811871052E0,-2.393592358E0,4.679399882E0
2.110021684E1,-1.033472896E0,2.880382538E-2,-1.157888770E0,1.552289371E0
2.111933882E1,-3.365108252E0,-5.845109940E0,-7.273921371E-1,6.783683592E0
2.113848757E1,-4.379724503E0,-4.518628120E0,-8.323113322E-1,6.347655391E0
2.115762298E1,-4.302885532E0,-1.406829834E0,-2.384039164E-1,4.533302385E0
2.117674507E1,-2.866176605E0,1.162430763E0,2.891414762E-1,3.106415363E0
2.119589372E1,-1.780527592E0,2.557880878E0,7.191119194E-1,3.198461356E0
2.121502913E1,-8.065427542E-1,4.255318642E0,4.563349485E-1,4.355053334E0
2.123416455E1,1.406673789E-1,5.426054955E0,6.153280735E-1,5.462644810E0
2.125329996E1,9.650023580E-1,6.458804131E0,8.402823210E-1,6.584334038E0
2.127243528E1,1.170629025E0,7.193686008E0,4.565719962E-1,7.302598763E0
2.129157069E1,1.092520237E0,7.141034126E0,2.044020742E-1,7.227015225E0
2.131070611E1,9.191533327E-1,5.866323471E0,5.628715158E-1,5.964513246E0
2.132984153E1,5.493935943E-1,4.237747669E0,5.413113236E-1,4.307360744E0
2.134896361E1,2.744626999E-1,2.191256046E0,1.501554847E0,2.670505531E0
2.136811226E1,-3.176132441E-1,7.647190094E-1,2.554889441E0,2.685727721E0
2.138724767E1,2.315498590E-1,-3.287582397E-1,2.341316223E0,2.375596551E0
2.140638309E1,9.618918896E-1,-2.228068352E0,2.293311596E0,3.338982280E0
2.142550517E1,2.192855835E0,-4.032115936E0,3.218221664E0,5.605669123E0
2.144465382E1,3.483132362E0,-4.986976624E0,4.539566994E0,7.590113002E0
2.146378924E1,4.524465084E0,-4.431669235E0,3.245705366E0,7.116535662E0
2.148291132E1,5.390378952E0,-1.864714622E0,2.082495689E-1,5.707601401E0
2.150206007E1,5.670504093E0,-3.391351700E-1,-3.137812376E0,6.489645279E0
2.152119548E1,2.392540693E0,9.332675934E-1,-4.834245682E0,5.474045184E0
2.154031746E1,-7.916847467E-1,1.002321243E-1,-5.957657337E0,6.010864511E0
2.155946622E1,-2.022871971E0,-3.323669434E0,-8.357302666E0,9.218638585E0
2.157860163E1,-3.253253222E0,-8.354746819E0,-6.098029137E0,1.084303510E1
2.159772372E1,-4.422173023E0,-1.384469604E1,-2.251985073E0,1.470723154E1
2.161687246E1,-3.883170128E0,-9.915638924E0,-1.867270947E0,1.081136468E1
2.163600778E1,-2.494139194E0,-3.495296478E0,-2.805558920E0,5.129228855E0
2.165512986E1,1.700316668E0,-1.550153732E0,-4.023694992E0,4.635102453E0
2.167427861E1,3.977605820E0,2.538738251E0,-3.034976721E0,5.610492283E0
2.169341403E1,4.679509640E0,4.739600658E0,1.573994160E-1,6.662311869E0
2.171253601E1,3.713793516E0,6.464706898E0,1.499209642E0,7.604756874E0
2.173168476E1,2.317834854E0,7.735278130E0,1.162512779E0,8.158328390E0
2.175080684E1,2.880533040E-1,7.368181229E0,4.433122873E-1,7.387123602E0
2.176995559E1,-1.194796920E0,7.755614758E0,-1.471290588E-1,7.848486918E0
2.178909101E1,-1.570938349E0,7.122668266E0,-5.557185411E-1,7.314989653E0
2.180822642E1,-1.082848072E0,5.577487469E0,1.857776642E-1,5.684667075E0
2.182734851E1,-2.531542182E-1,3.884134293E0,1.446018219E0,4.152295143E0
2.184649715E1,2.093938351E0,5.964403152E-1,1.819266438E0,2.837260869E0
2.186563257E1,3.077434540E0,-3.336243629E0,7.108743191E-1,4.594177532E0
2.188475465E1,1.144240975E0,-6.678104401E0,-7.559769154E-1,6.817467777E0
2.190390340E1,-2.728739023E0,-5.697326660E0,3.851972103E0,7.398867266E0
2.192303882E1,-2.106854916E0,-3.265995979E0,4.283596992E0,5.784009904E0
2.194216090E1,2.763558030E-1,-4.384360313E0,-6.268664598E-1,4.437561205E0
2.196130955E1,-2.172724724E0,-1.458093548E1,-7.055186272E0,1.634319631E1
2.198044496E1,-5.285377502E0,-1.093270206E1,-7.046543121E0,1.403969229E1
2.199956705E1,-4.640211582E0,2.349573135E0,-3.505727291E0,6.272334596E0
2.201871580E1,-1.638412237E0,4.716934204E0,-1.545693040E0,5.227143572E0
2.203785122E1,-1.623299479E0,5.342121124E-1,-7.946615815E-1,1.884667294E0
2.205697330E1,-3.477975130E0,-6.468385696E0,-9.946562052E-1,7.411185161E0
2.207612205E1,-4.773237705E0,-5.093098640E0,-1.488938093E0,7.137253575E0
2.209525736E1,-4.547395229E0,-9.970178604E-1,-4.459999800E-1,4.676725774E0
2.211437944E1,-2.859255791E0,1.477688789E0,4.300786555E-1,3.247133426E0
2.213352819E1,-1.930279613E0,2.779153347E0,1.183691621E0,3.584801049E0
2.215266361E1,-7.070739865E-1,4.279294968E0,1.637958884E0,4.636294679E0
2.217179903E1,1.427010894E-1,5.356668472E0,1.395725608E0,5.537355930E0
2.219093444E1,7.810149193E-1,6.454761028E0,9.555021524E-1,6.571674718E0
2.221006986E1,1.071916223E0,7.207254410E0,3.471566737E-1,7.294795286E0
2.222920528E1,1.287365198E0,7.075115204E0,2.199434787E-1,7.194646582E0
2.224834069E1,1.569954634E0,6.006770134E0,6.292584538E-1,6.240353451E0
2.226747601E1,1.825988412E0,4.477561474E0,9.256247282E-1,4.923369940E0
2.228661142E1,1.338577390E0,2.944487572E0,1.298355103E0,3.485329606E0
2.230573351E1,1.055793166E0,1.314404488E0,2.205911875E0,2.776401550E0
2.232488226E1,9.745913744E-1,-5.632314682E-1,1.853032351E0,2.168129822E0
2.234401767E1,1.348647594E0,-3.346306801E0,1.988947392E0,4.119773206E0
2.236313976E1,2.587384462E0,-5.987013817E0,3.194334984E0,7.262414804E0
2.238228851E1,3.920125246E0,-6.647152901E0,3.862649918E0,8.629721202E0
2.240142392E1,5.098663807E0,-4.481746674E0,2.103824139E0,7.106933366E0
2.242054601E1,5.900347710E0,-2.173242569E0,-4.019743204E-1,6.300688035E0
2.243969476E1,5.596439838E0,-9.314823151E-1,-3.035736322E0,6.434554622E0
2.245883017E1,1.877982378E0,3.047647476E-1,-3.720014095E0,4.178301597E0
2.247795226E1,-1.248064280E0,-1.679744720E0,-4.397509098E0,4.870040353E0
2.249710101E1,-3.008387566E0,-4.475212097E0,-7.526934624E0,9.259193479E0
2.251623642E1,-5.263447285E0,-7.493332863E0,-6.618512154E0,1.129861132E1
2.253535851E1,-5.471668243E0,-1.068978786E1,-2.961225510E0,1.236849120E1
2.255450726E1,-4.167758942E0,-5.724109650E0,-3.166923046E0,7.756613143E0
2.257364267E1,-2.610021114E0,-4.021073341E0,-3.732261181E0,6.075443569E0
2.259276476E1,1.956694126E0,-2.174333572E0,-4.538940907E0,5.399848418E0
2.261191351E1,3.759521961E0,3.047993660E0,-1.887020111E0,5.194719976E0
2.263104892E1,4.374993801E0,5.475225925E0,8.378143311E-1,7.058371097E0
2.265017101E1,3.674442530E0,7.278362274E0,1.839047909E0,8.358120752E0
2.266931976E1,2.469959497E0,8.501749992E0,1.057781219E0,8.916241022E0
2.268845517E1,6.863081455E-1,8.512008667E0,1.078202248E0,8.607428798E0
2.270759059E1,-4.175955653E-1,8.287067413E0,1.065734625E-1,8.298266703E0
2.272672601E1,-8.074836731E-1,6.801736832E0,-7.766737938E-1,6.893393648E0
2.274586142E1,-4.957297146E-1,4.806591511E0,2.434253693E-4,4.832087537E0
2.276498351E1,4.469743967E-1,2.044192791E0,5.611948967E-1,2.166437165E0
2.278413226E1,1.339649796E0,-1.397081375E0,2.218963146E0,2.944536532E0
2.280326767E1,2.121351957E0,-5.638630867E0,1.223689795E0,6.147496148E0
2.282238976E1,2.755966187E-1,-7.331027031E0,4.314486980E-1,7.348881466E0
2.284153851E1,-2.238834620E0,-5.049602509E0,3.892970324E0,6.757668525E0
2.286067392E1,-4.362422824E-1,-1.730323792E0,2.998139858E0,3.489007074E0
2.287979601E1,6.075567007E-1,-3.456995010E0,-7.772892714E-1,3.595012970E0
2.289894476E1,-2.201441288E0,-1.278483486E1,-7.581641197E0,1.502596517E1
2.291808017E1,-5.496479988E0,-9.463221550E0,-6.439924240E0,1.269789268E1
2.293720226E1,-4.924732208E0,1.873190403E0,-3.380898952E0,6.260375974E0
2.295635111E1,-2.316823959E0,2.954615593E0,-1.602009773E0,4.082139375E0
2.297548653E1,-2.011849880E0,-1.387972832E0,-5.749535561E-1,2.510892294E0
2.299460861E1,-3.487972021E0,-5.777233124E0,-2.355592251E-1,6.752618717E0
2.301375736E1,-4.090257645E0,-3.980869293E0,-1.053159475E0,5.804022123E0
2.303289278E1,-3.292127848E0,-5.992231369E-1,4.358410835E-3,3.346220723E0
2.305202819E1,-2.101685286E0,2.089745998E0,1.169264793E0,3.186110408E0
2.307115028E1,-1.410245419E0,3.674816132E0,1.321459532E0,4.152026136E0
2.309029903E1,-7.239006162E-1,5.336992264E0,5.819784403E-1,5.417214915E0
2.310943455E1,-3.879417181E-1,6.575718880E0,9.491502643E-1,6.655183227E0
2.312856996E1,3.085446358E-2,7.149528980E0,8.489331007E-1,7.199819723E0
2.314770538E1,1.138951778E-1,7.164391041E0,5.771528482E-1,7.188503078E0
2.316684080E1,2.794970274E-1,6.179259777E0,4.948245585E-1,6.205338131E0
2.318597622E1,6.063458920E-1,4.712569237E0,1.997175664E-1,4.755612606E0
2.320509840E1,6.717039943E-1,2.740788460E0,9.476933479E-1,2.976781873E0
2.322424715E1,6.402893662E-1,9.186849594E-1,1.963942766E0,2.260757332E0
2.324338257E1,1.126210451E0,1.277980804E-1,2.202745676E0,2.477250662E0
2.326250465E1,1.812537670E0,-1.316390038E0,3.010367393E0,3.752397551E0
2.328165340E1,2.390193939E0,-3.366375923E0,3.140428543E0,5.187273403E0
2.330077559E1,3.481422186E0,-4.580180168E0,4.248733997E0,7.151929208E0
2.331992434E1,4.552812576E0,-4.348051071E0,3.704416275E0,7.304543135E0
2.333905976E1,5.363168716E0,-2.257183075E0,-1.452347636E-2,5.818819902E0
2.335818184E1,5.405872345E0,-4.487066269E-1,-3.360784292E0,6.381196166E0
2.337733069E1,2.807439327E0,5.332651138E-1,-4.077225685E0,4.978941308E0
2.339646611E1,-8.956022859E-1,-1.128310204E0,-4.928879738E0,5.135079633E0
2.341558819E1,-2.280255079E0,-5.366548538E0,-7.684299469E0,9.646132114E0
2.343473694E1,-3.770828009E0,-9.615898132E0,-7.183800697E0,1.258140029E1
2.345387246E1,-4.276356697E0,-1.301160526E1,-2.388591766E0,1.390303811E1
2.347299455E1,-4.153962135E0,-8.810394287E0,-3.206745625E0,1.025483625E1
2.349214330E1,-1.996115088E0,-4.702522278E0,-3.052480459E0,5.951119909E0
2.351127872E1,2.871464968E0,-1.524860382E0,-3.698184967E0,4.924132644E0
2.353040090E1,4.633781433E0,3.250117779E0,-1.988783836E0,5.999204705E0
2.354954965E1,5.080949306E0,4.901199818E0,-1.222062111E-1,7.060647270E0
2.356868507E1,3.930431366E0,6.757018089E0,2.691180468E0,8.267287130E0
2.358780684E1,2.034407616E0,7.190492630E0,1.309912682E0,7.586690309E0
2.360695601E1,-3.980773687E-1,7.744478703E0,5.377755165E-1,7.773327375E0
2.362609142E1,-1.687705874E0,7.961484432E0,-2.538217306E-1,8.142359053E0
2.364522694E1,-1.552626967E0,7.522560596E0,-4.807691574E-1,7.696148869E0
2.366434903E1,-2.181864977E-1,5.271390438E0,3.621642590E-1,5.288319719E0
2.368349778E1,1.114436388E0,3.091963291E0,1.013593435E0,3.439415228E0
2.370263330E1,2.365581036E0,3.368244171E-1,1.234193563E0,2.689360161E0
2.372175538E1,2.416328430E0,-4.708935738E0,1.443442583E0,5.486004498E0
2.374090424E1,-5.225789547E-2,-8.178374290E0,2.972502232E0,8.701971411E0
2.376003965E1,-2.369843006E0,-5.521498680E0,3.569805384E0,6.989035271E0
2.377916174E1,-6.052505970E-2,-3.649701118E0,2.780349255E-1,3.660776551E0
2.379831059E1,1.512606144E-1,-1.015258980E1,-4.869205952E0,1.126086702E1
2.381744601E1,-5.064818382E0,-1.464631844E1,-2.971183777E0,1.577957420E1
2.383656819E1,-7.406696320E0,-7.453804016E-1,-5.337480545E0,9.159882143E0
2.385571694E1,-4.919738770E0,4.380425453E0,-3.833479166E0,7.621516859E0
2.387485246E1,-1.232054830E0,4.690036774E-1,3.257101774E-2,1.318705586E0
2.389397455E1,-2.735227108E0,-5.183379173E0,-1.268306375E-1,5.862164532E0
2.391312330E1,-4.829248428E0,-6.088082314E0,-1.092382312E0,7.847272504E0
2.393225882E1,-5.249492645E0,-1.725947380E0,-1.156770229E0,5.645722696E0
2.395138090E1,-3.204547644E0,1.485311508E0,-7.052819729E-1,3.601763254E0
2.397052976E1,-1.712378263E0,3.202260971E0,5.068107843E-1,3.666547670E0
2.398966517E1,-7.442822456E-1,5.153264046E0,1.508739233E0,5.420920628E0
2.400878736E1,-1.436638236E-1,7.042252541E0,1.271499395E0,7.157560398E0
2.402793611E1,6.208553314E-1,7.790637970E0,9.876024723E-1,7.877490715E0
2.404707163E1,1.433597684E0,8.074366570E0,8.918946981E-2,8.201131177E0
2.406620705E1,1.710234880E0,7.551893234E0,2.319060415E-1,7.746597652E0
2.408534257E1,1.588119864E0,5.938337326E0,1.085577726E0,6.242151384E0
2.410446465E1,1.128767848E0,3.943714142E0,1.147818685E0,4.259634470E0
2.412361351E1,-2.971807718E-1,1.756665230E0,1.382966399E0,2.255390255E0
2.414274892E1,-1.250747919E0,-1.489721298E0,1.576663733E0,2.503898646E0
2.416187111E1,-6.199113131E-1,-2.977562904E0,1.377423048E0,3.338781984E0
2.418101986E1,8.611128926E-1,-3.635204315E0,2.987545252E0,4.783477026E0
2.420015538E1,2.125205994E0,-3.421672821E0,3.828114986E0,5.556870500E0
2.421929080E1,3.200789928E0,-3.191957474E0,3.907631397E0,5.975218140E0
2.423841298E1,4.380688667E0,-2.879834175E0,3.218805790E0,6.151795574E0
2.425756174E1,5.876819611E0,-2.159492493E0,1.492183447E0,6.436383146E0
2.427669726E1,6.414868832E0,-1.144756317E0,-9.081403613E-1,6.579189013E0
2.429581934E1,3.531030416E0,1.304636002E-1,-2.846647501E0,4.537466093E0
2.431496819E1,-4.144719243E-1,3.180885315E-2,-4.388069630E0,4.407715265E0
2.433410372E1,-1.771646976E0,-1.655774117E0,-8.459940910E0,8.800620497E0
2.435322580E1,-2.526592731E0,-5.155377388E0,-8.929829597E0,1.061618780E1
2.437237465E1,-3.450712681E0,-1.181985950E1,-5.452423573E0,1.346645534E1
2.439151007E1,-3.656716585E0,-1.294811440E1,-1.496213794E0,1.353749971E1
2.441063226E1,-3.283277512E0,-6.346687317E0,-1.787588954E0,7.365855374E0
2.442978101E1,-9.866201878E-1,-2.096636772E0,-1.804048061E0,2.936646822E0
2.444891653E1,2.643817902E0,6.644210815E-1,-4.043011189E0,4.876183748E0
2.446803872E1,3.792846203E0,4.155690193E0,-1.223759890E0,5.757866929E0
2.448718746E1,3.712066174E0,5.803099632E0,2.501273155E-2,6.888833447E0
2.450632298E1,2.472073793E0,7.679048538E0,1.137701750E0,8.146981071E0
2.452545840E1,1.125031948E0,7.528614044E0,6.565504074E-1,7.640470192E0
2.454459392E1,-1.162625551E-1,7.934532166E0,9.588718414E-2,7.935963207E0
2.456372944E1,-5.813796520E-1,7.768772125E0,-6.109724045E-1,7.814416799E0
2.458286486E1,-5.480834246E-1,6.409139633E0,-6.697213650E-2,6.432880501E0
2.460200038E1,-1.422745466E0,5.515907288E0,2.948301077E0,6.414196529E0
2.462112257E1,8.870831132E-1,2.159190178E0,2.690196037E-1,2.349763865E0
2.464027132E1,3.546107531E0,-1.125027657E0,-2.641290426E-1,3.729655480E0
2.465940684E1,3.411971569E0,-5.644512177E0,2.343952656E-1,6.599773393E0
2.467852903E1,2.934327126E-1,-7.859314919E0,2.083785295E0,8.136159715E0
2.469767778E1,-2.022074699E0,-5.592714310E0,4.685216904E0,7.570898023E0
2.471681330E1,-9.850373268E-1,-2.512818336E0,1.900969505E0,3.301248186E0
2.473593538E1,-4.391889274E-1,-8.232423782E0,-5.514565468E0,9.918473700E0
2.475508424E1,-5.164813995E0,-1.766717911E1,-1.185051441E1,2.189153291E1
2.477421976E1,-6.634106636E0,-3.083832741E0,8.738768101E-1,7.367839297E0
2.479334184E1,-5.937446594E0,4.096646786E0,-2.046834230E0,7.498354307E0
2.481249069E1,-3.037762642E0,3.030140877E0,-1.929125547E0,4.704389544E0
2.483162622E1,-2.273972750E0,-1.646542549E0,-3.874209523E-1,2.834104696E0
2.485074830E1,-2.168872833E0,-4.273445129E0,-9.640259147E-1,4.888321655E0
2.486989715E1,-2.437226772E0,-3.459422112E0,-1.361591816E0,4.445403014E0
2.488903267E1,-1.656359911E0,1.795425415E-1,-2.940749228E-1,1.691816698E0
2.490816819E1,-5.632184148E-1,2.530257225E0,1.054106236E0,2.798313164E0
2.492729028E1,-3.461624384E-1,3.812566757E0,1.529218912E0,4.122378463E0
2.494643913E1,-6.432181597E-2,5.370499611E0,9.170441628E-1,5.448612058E0
2.496557465E1,1.897703409E-1,6.793218613E0,1.233067036E0,6.906828955E0
2.498471007E1,5.694946647E-1,7.840190887E0,8.989527225E-1,7.912081478E0
2.500384559E1,9.737564325E-1,8.563455582E0,3.994469643E-1,8.627892614E0
2.502298111E1,9.951577187E-1,7.878863811E0,5.849761963E-1,7.962978777E0
2.504210319E1,7.590224147E-1,5.433809280E0,5.968241692E-1,5.518930821E0
2.506125205E1,-5.002570152E-2,2.639508247E0,6.339944601E-1,2.715042418E0
2.508038757E1,-8.804339170E-1,-1.008785248E0,1.853386283E0,2.286449709E0
2.509950976E1,-3.593126535E-1,-3.600497246E0,2.039964676E0,4.153810525E0
2.511865851E1,1.086469531E0,-5.505802155E0,2.697203398E0,6.226490149E0
2.513779403E1,2.637690544E0,-5.833538055E0,4.087652683E0,7.595820042E0
2.515691622E1,3.900959969E0,-4.333153725E0,3.895636559E0,7.012110529E0
2.517606497E1,4.868995190E0,-2.047067642E0,2.323071480E0,5.770117953E0
2.519520048E1,5.500126362E0,-7.526216507E-1,9.083770216E-2,5.552123993E0
2.521432267E1,5.370355606E0,-3.818826675E-1,-2.151300192E0,5.797813918E0
2.523347153E1,2.112166643E0,4.379158020E-1,-3.680058956E0,4.265659632E0
2.525260694E1,-7.660877705E-1,6.489791870E-1,-5.655791759E0,5.744218388E0
2.527172913E1,-1.943635821E0,-1.555255890E0,-8.351264000E0,8.714364663E0
2.529087798E1,-3.200510025E0,-5.789409637E0,-6.960273743E0,9.602392355E0
2.531001351E1,-4.874257088E0,-1.205259514E1,-2.155514002E0,1.317837897E1
2.532913559E1,-4.683904171E0,-1.231345367E1,1.052832603E-1,1.317464171E1
2.534828444E1,-4.153391838E0,-4.066974640E0,-3.182558060E0,6.627188113E0
2.536741996E1,-8.390096426E-1,-1.587928772E0,-4.315529823E0,4.674318412E0
2.538654215E1,2.753180981E0,-2.254571915E-1,-4.063553810E0,4.913583827E0
2.540569090E1,4.294556141E0,4.319432259E0,5.283451080E-2,6.091264152E0
2.542482642E1,4.735230923E0,5.859954834E0,5.606484413E-1,7.554853355E0
2.544396194E1,4.113363743E0,7.462228775E0,2.338671684E-1,8.524043256E0
2.546308413E1,2.257122755E0,7.688140392E0,7.512316704E-1,8.047760859E0
2.548223299E1,2.417975366E-1,7.382613659E0,-1.462658644E-1,7.388020316E0
2.550136851E1,-7.087024450E-1,7.269100189E0,-8.396706581E-1,7.351674879E0
2.552050392E1,-6.993035078E-1,6.590427876E0,-3.650450706E-1,6.637471121E0
2.553963944E1,-3.809928894E-2,4.989103317E0,5.618748665E-1,5.020787471E0
2.555876163E1,1.629372120E0,2.843952179E0,1.456305623E0,3.586606135E0
2.557791048E1,2.712770939E0,-1.286874771E0,3.668038845E0,4.740219595E0
2.559704601E1,1.835591316E0,-8.059891701E0,7.927334309E-1,8.304196289E0
2.561616809E1,-1.575799942E0,-8.843660355E0,1.165653944E0,9.058268214E0
2.563531694E1,-2.188657999E0,-4.428219795E0,3.714988470E0,6.180654797E0
2.565445247E1,-1.417549133E0,-3.961385727E0,-4.406936169E-1,4.230393987E0
2.567357465E1,-2.675647020E0,-1.356577206E1,-6.580453873E0,1.531311959E1
2.569272351E1,-4.445431232E0,-1.013160229E1,-8.207830429E0,1.377605546E1
2.571185903E1,-3.094959974E0,1.753204823E0,-1.501028180E0,3.860775827E0
2.573099444E1,-2.306575775E0,3.432114124E0,-1.715960264E0,4.477077037E0
2.575012997E1,-2.199991465E0,-3.290634155E-1,-1.304176807E0,2.578589211E0
2.576925215E1,-3.644115686E0,-5.855878830E0,-7.072868347E-1,6.933336186E0
2.578840101E1,-4.945544243E0,-4.732109070E0,-1.092394948E0,6.931420549E0
2.580753653E1,-4.617550850E0,-1.012390137E0,-3.373522460E-1,4.739252703E0
2.582665872E1,-2.664782047E0,1.961869717E0,8.848204613E-1,3.425332596E0
2.584580757E1,-1.436261535E0,3.448599339E0,1.961099505E0,4.219193746E0
2.586494309E1,-3.109852076E-1,4.664095402E0,8.853279948E-1,4.757552246E0
2.588407851E1,3.961635828E-1,5.981345177E0,8.672859073E-1,6.056865572E0
2.590321403E1,8.380693197E-1,6.830649853E0,8.991099596E-1,6.940355633E0
2.592234955E1,1.203509569E0,7.216714382E0,3.157269359E-1,7.323188189E0
2.594148507E1,1.383970141E0,6.860344887E0,2.631694376E-1,7.003496518E0
2.596060726E1,1.248339057E0,5.678155422E0,2.469701022E-1,5.819002804E0
2.597975611E1,8.626218438E-1,3.774065971E0,5.479950309E-1,3.909985800E0
2.599889163E1,4.538083076E-2,1.778549194E0,1.269162297E0,2.185422063E0
2.601801382E1,-1.538014412E-1,-9.206008911E-2,2.319215775E0,2.326132359E0
2.603716267E1,6.518798470E-1,-1.190830231E0,2.090969324E0,2.493025609E0
2.605628486E1,1.866112947E0,-2.985635757E0,3.121028423E0,4.705020385E0
2.607543361E1,3.233040571E0,-4.344061852E0,4.149362564E0,6.822069656E0
2.609456913E1,4.250837326E0,-4.816013336E0,3.346689224E0,7.243198961E0
2.611369132E1,5.263804436E0,-3.364879608E0,4.244164228E-1,6.261803352E0
2.613284017E1,5.915897369E0,-2.082035065E0,-2.972210884E0,6.940226886E0
2.615197569E1,4.425109863E0,-1.316809654E0,-4.282725334E0,6.297405915E0
2.617109788E1,-1.326429099E-1,-1.950293541E0,-4.204325676E0,4.636549733E0
2.619024674E1,-2.075948238E0,-5.565490723E0,-7.321092606E0,9.427759278E0
2.620938226E1,-3.854814768E0,-8.702434540E0,-8.233533859E0,1.258503252E1
2.622850444E1,-4.600430012E0,-1.077180099E1,-4.681918144E0,1.261411949E1
2.624765330E1,-3.140126705E0,-5.491066933E0,-1.947887659E0,6.618646245E0
2.626678882E1,-1.377078295E0,-2.230978966E0,-2.043121815E0,3.323846947E0
2.628591101E1,2.487720490E0,-2.542758942E0,-3.514309883E0,5.000475000E0
2.630505986E1,4.252968788E0,2.371583462E0,-3.572521448E0,6.039458678E0
2.632419538E1,4.488428116E0,4.820698261E0,-8.532216549E-1,6.641769784E0
2.634331757E1,3.102335453E0,6.451345444E0,1.601052999E0,7.335374156E0
2.636246642E1,1.642738819E0,7.494021416E0,1.427027464E0,7.803547603E0
2.638160194E1,-1.431063935E-2,7.542743683E0,7.256733179E-1,7.577584630E0
2.640073747E1,-1.228590012E0,8.001928329E0,2.886005640E-1,8.100838271E0
2.641987298E1,-1.052439451E0,6.912683487E0,-2.417140007E-1,6.996516808E0
2.643900840E1,-2.022871971E-1,4.953268528E0,4.930889606E-1,4.981859687E0
2.645813059E1,3.088550568E-1,3.609176159E0,4.796879292E-1,3.653990216E0
2.647727944E1,2.696577311E0,4.169054031E-1,1.593629360E0,3.159904088E0
2.649641497E1,4.215869904E0,-3.909950256E0,1.752755642E-1,5.752563913E0
2.651553715E1,1.729378223E0,-6.318548203E0,-5.173887014E-1,6.571338638E0
2.653468601E1,-1.989120126E0,-4.910393715E0,3.518282413E0,6.359785881E0
2.655382153E1,-1.854257584E0,-2.578413963E0,4.819540977E0,5.771868414E0
2.657294372E1,1.370131969E-3,-1.401737213E0,2.461634874E-1,1.423188517E0
2.659209257E1,-4.706975818E-1,-9.946119308E0,-6.917971134E0,1.212456886E1
2.661122809E1,-5.222990513E0,-1.792211151E1,-1.074838543E1,2.154087975E1
2.663035028E1,-5.718768120E0,-1.466312408E0,-3.206721544E-1,5.912462390E0
2.664949913E1,-5.465034485E0,4.419962883E0,-2.422112465E0,7.434332694E0
2.666863465E1,-2.718922615E0,4.995839596E0,-5.299437046E-1,5.712424510E0
2.668775684E1,-2.333410025E0,-2.098766327E0,-5.717031956E-1,3.190057520E0
2.670690569E1,-2.791403770E0,-5.112903595E0,-7.980834246E-1,5.879681567E0
2.672604122E1,-3.235031128E0,-3.316340446E0,-1.469697237E0,4.860406395E0
2.674517674E1,-2.074356556E0,-2.319335938E-1,-3.468818069E-1,2.115910041E0
2.676429892E1,-8.883617520E-1,1.412644386E0,8.186334372E-1,1.858739215E0
2.678344778E1,-4.725348353E-1,3.401481628E0,6.147441268E-1,3.488735699E0
2.680258330E1,5.720096827E-2,4.866566181E0,8.198820949E-1,4.935478193E0
2.682171882E1,3.271873295E-1,5.993618965E0,7.653911710E-1,6.051143982E0
2.684085434E1,6.236953735E-1,6.984283447E0,9.712750912E-1,7.079024403E0
2.685998986E1,8.043471575E-1,7.582334995E0,4.227974713E-1,7.636591912E0
2.687912538E1,7.537459135E-1,6.718763351E0,3.584541976E-1,6.770406434E0
2.689824757E1,6.941360831E-1,4.879058361E0,6.311031580E-1,4.968433011E0
2.691739642E1,2.751983404E-1,3.074699402E0,8.223257065E-1,3.194640841E0
2.693653194E1,-4.985570908E-1,8.884229660E-1,1.726840258E0,2.004951824E0
2.695565413E1,-9.463832378E-1,-9.504652023E-1,2.316310406E0,2.676624596E0
2.697480309E1,-2.348766327E-1,-3.058115959E0,1.629942417E0,3.473320103E0
2.699393861E1,1.560105562E0,-5.012052536E0,1.587024450E0,5.483907967E0
2.701306080E1,3.501690865E0,-4.976951599E0,4.107907772E0,7.342124515E0
2.703220965E1,4.687330246E0,-3.271531105E0,3.994242430E0,6.973374592E0
2.705134517E1,5.240544796E0,-1.388352394E0,1.367365956E0,5.591110962E0
2.707046736E1,5.311739922E0,-9.887199402E-1,-2.919866085E0,6.141479143E0
2.708961622E1,3.088254452E0,-1.341056824E-1,-4.764774799E0,5.679646008E0
2.710875174E1,-1.239476681E0,-1.460325241E0,-5.996056557E0,6.294564837E0
2.712787392E1,-3.226882458E0,-5.195338249E0,-8.152763367E0,1.019175453E1
2.714702278E1,-5.919315815E0,-7.943601608E0,-7.017437935E0,1.214016233E1
2.716615830E1,-6.517639637E0,-1.201610565E1,-2.245437384E0,1.385310112E1
2.718528049E1,-3.328311920E0,-6.093393326E0,-1.740355015E0,7.157928334E0
2.720442934E1,9.936409593E-1,-3.855272293E0,-3.303928375E0,5.173624408E0
2.722356486E1,3.273235321E0,-3.975035667E0,-4.993601322E0,7.172937487E0
2.724268715E1,4.374950409E0,1.654214859E0,-3.794976234E0,6.023160508E0
2.726183601E1,4.089381695E0,4.136554718E0,1.232624054E-1,5.818016948E0
2.728097153E1,2.586915970E0,6.339905739E0,1.986317396E0,7.129656079E0
2.730010705E1,1.145173550E0,7.675621510E0,8.663244247E-1,7.808783902E0
2.731924257E1,-1.537459046E-1,7.536559582E0,3.983373642E-1,7.548644964E0
2.733837809E1,-8.951455355E-1,7.989850998E0,-3.025711775E-1,8.045530052E0
2.735751372E1,-7.783580422E-1,7.844584465E0,-7.960387468E-1,7.923195338E0
2.737664924E1,-5.039185286E-1,5.990666389E0,-1.878350973E-1,6.014756828E0
2.739577142E1,5.900805593E-1,3.855376244E0,1.942613840E0,4.357277771E0
2.741492028E1,2.949573040E0,1.548567772E0,9.181439877E-1,3.455579784E0
2.743405590E1,3.924695492E0,-1.953162193E0,7.782411575E-2,4.384533481E0
2.745317809E1,2.830874920E0,-6.792955399E0,-5.048415661E-1,7.376514141E0
2.747232694E1,-1.067904830E0,-6.959293365E0,3.218025684E0,7.741309591E0
2.749146246E1,-2.904597759E0,-3.880472183E0,5.348050594E0,7.217783432E0
2.751058476E1,-1.083909750E0,-3.389133453E0,-9.745192528E-2,3.559576209E0
2.752973361E1,-2.686601639E0,-1.315141678E1,-8.093778610E0,1.567440091E1
2.754886913E1,-5.895995140E0,-1.258253670E1,-8.449922562E0,1.626296959E1
2.756799142E1,-2.732807159E0,2.275448799E0,-8.882040977E-1,3.665352470E0
2.758714028E1,-1.340560436E0,2.525652885E0,-3.053785324E0,4.183494901E0
2.760627580E1,-1.713092923E0,-1.049267769E0,-2.515691757E0,3.219371869E0
2.762539809E1,-3.783328533E0,-4.891225815E0,-5.319174528E-1,6.206496672E0
2.764454694E1,-4.505368710E0,-3.498585701E0,-4.836057723E-1,5.724711666E0
2.766368257E1,-3.872374296E0,-7.671680450E-1,-2.288168967E-1,3.954261836E0
2.768281809E1,-2.708701849E0,2.081408024E0,6.350661516E-1,3.474569626E0
2.770194028E1,-1.936319232E0,3.610203266E0,1.574303031E0,4.388773157E0
2.772108924E1,-1.183821201E0,4.899471760E0,1.056929588E0,5.150083137E0
2.774022476E1,-4.306987524E-1,6.004584312E0,1.065215945E0,6.113527557E0
2.775936038E1,8.740097284E-2,6.607388020E0,6.171866655E-1,6.636726207E0
2.777849590E1,3.600972295E-1,6.758275986E0,8.604344726E-2,6.768409546E0
2.779763153E1,4.561548829E-1,6.222439289E0,-1.583613157E-1,6.241146232E0
2.781676705E1,8.309723139E-1,4.387965679E0,1.496452987E-1,4.468461872E0
2.783588934E1,1.141604185E0,2.524933338E0,2.290198505E-1,2.780467329E0
2.785503830E1,1.314985871E0,1.066385269E0,7.772192955E-1,1.862910416E0
2.787417382E1,1.322751760E0,4.467954636E-1,2.331606627E0,2.717662206E0
2.789330944E1,1.739463806E0,1.286602020E-1,3.099912882E0,3.556929526E0
2.791244497E1,2.113530159E0,-7.134160995E-1,2.129804850E0,3.084159685E0
2.793158059E1,2.827900410E0,-2.646977425E0,3.035121202E0,4.920921756E0
2.795071622E1,3.910185099E0,-4.754344940E0,4.160251141E0,7.429739758E0
2.796985174E1,4.856104851E0,-5.492757797E0,2.735913754E0,7.825430762E0
2.798898736E1,5.502501011E0,-3.351032257E0,-4.386744499E-1,6.457504923E0
2.800810965E1,5.310805321E0,-1.400872231E0,-3.505538702E0,6.515819039E0
2.802725851E1,1.683423758E0,5.669174194E-1,-4.339708805E0,4.689177265E0
2.804639413E1,-9.542565346E-1,-3.328723907E-1,-4.293523788E0,4.410867951E0
2.806551642E1,-2.228925228E0,-3.100079536E0,-5.799362183E0,6.943428730E0
2.808466528E1,-3.986931801E0,-7.267395973E0,-5.347850323E0,9.864591856E0
2.810380090E1,-5.406841278E0,-1.307084274E1,-3.001110554E0,1.445985917E1
2.812292319E1,-4.777823448E0,-9.123924255E0,-3.420894623E0,1.085247026E1
2.814207215E1,-3.046629906E0,-3.645650864E0,-5.257365704E0,7.086086236E0
2.816120767E1,1.698308587E0,-1.955625534E0,-5.269558907E0,5.871709662E0
2.818032997E1,3.625897646E0,1.332148552E0,-2.365489244E0,4.529601844E0
2.819947892E1,4.446373940E0,4.530936718E0,1.926518917E0,6.634086515E0
2.821861455E1,4.394000053E0,7.130483150E0,1.622711182E0,8.531366714E0
2.823775017E1,3.266764402E0,7.078905106E0,1.166512012E0,7.883108361E0
2.825687246E1,6.024218798E-1,7.831031322E0,3.151886463E-1,7.860490289E0
2.827602132E1,-1.323346734E0,8.322628975E0,-4.986697435E-1,8.441923427E0
2.829515694E1,-1.788313866E0,7.749154568E0,-1.046798944E0,8.021424501E0
2.831427924E1,-7.499605417E-1,5.711668015E0,-1.756119728E-2,5.760720503E0
2.833342819E1,7.732881904E-1,3.843856335E0,1.002364159E0,4.046966772E0
2.835256382E1,1.920965672E0,1.585952282E0,2.241755486E0,3.351241771E0
2.837168611E1,2.224688530E0,-3.384867668E0,1.347617149E0,4.268798445E0
2.839083507E1,7.071213126E-1,-6.837438583E0,-1.954936981E-1,6.876685591E0
2.840997069E1,-1.818069339E0,-6.194135666E0,4.175014973E0,7.687876351E0
2.842909298E1,-7.536760569E-1,-3.454241753E0,3.139053583E0,4.727945757E0
2.844824194E1,2.677858472E-1,-5.254362106E0,-1.291427851E0,5.417362485E0
2.846737757E1,-3.231086731E0,-1.630972672E1,-9.540995598E0,1.916970798E1
2.848649986E1,-5.354872227E0,-8.574456215E0,-5.754706383E0,1.163239449E1
2.850564882E1,-5.229917049E0,3.475772381E0,-1.928698897E0,6.569087107E0
2.852478444E1,-3.566071033E0,4.486064911E0,-1.527034998E0,5.930723133E0
2.854390674E1,-2.350454092E0,8.387203217E-1,-2.025586963E-1,2.503820329E0
2.856305569E1,-3.236372948E0,-5.860183716E0,-8.459812999E-1,6.747706825E0
2.858219132E1,-4.239591599E0,-4.286503792E0,-1.431952715E0,6.196671708E0
2.860132694E1,-3.909585476E0,-1.085107803E0,-3.550404012E-1,4.072882422E0
2.862046257E1,-2.035859585E0,1.221901894E0,7.235580683E-1,2.482197568E0
2.863958486E1,-1.024883509E0,2.591326714E0,1.212185144E0,3.038873668E0
2.865873392E1,-7.693839073E-2,4.094034672E0,9.522582889E-1,4.204026077E0
2.867786955E1,2.342420816E-2,5.656624794E0,1.459517717E0,5.841929880E0
2.869700517E1,5.318962336E-1,6.679384708E0,7.988393307E-1,6.747980288E0
2.871614080E1,1.207998753E0,7.080267429E0,2.046675086E-1,7.185494878E0
2.873527642E1,1.445591688E0,6.643812656E0,7.680287957E-2,6.799697098E0
2.875441205E1,1.792710423E0,5.174765587E0,5.468189716E-1,5.503727876E0
2.877354778E1,1.637822986E0,3.819889545E0,1.373576283E0,4.377297349E0
2.879268340E1,7.557263970E-1,2.382298946E0,2.081105232E0,3.252302207E0
2.881180569E1,4.823756218E-2,5.534343719E-1,2.166244984E0,2.236343846E0
2.883095465E1,3.048185110E-1,-1.019201279E0,1.885113716E0,2.164564458E0
2.885009028E1,1.312554240E0,-3.285161018E0,1.597903728E0,3.881800855E0
2.886921267E1,2.906651497E0,-5.032094955E0,2.956124544E0,6.519913718E0
2.888836163E1,4.305460930E0,-5.460883141E0,4.104747295E0,8.075096832E0
2.890749726E1,5.232374668E0,-3.452878952E0,1.578845024E0,6.464740469E0
2.892661965E1,5.793833733E0,-1.260859489E0,-1.972028732E0,6.248773743E0
2.894576861E1,4.178556442E0,2.151832581E-1,-3.704244137E0,5.588207441E0
2.896490424E1,-1.586640775E-1,-1.488685608E-1,-4.329537392E0,4.335000596E0
2.898402663E1,-1.942311764E0,-3.856963158E0,-7.321259975E0,8.499975730E0
2.900317559E1,-3.471987247E0,-8.162993431E0,-8.394702911E0,1.221311566E1
2.902231122E1,-4.937376022E0,-1.265159035E1,-5.332586765E0,1.459030164E1
2.904143351E1,-4.035394669E0,-1.031484509E1,-2.562098980E0,1.136858788E1
2.906058257E1,-2.869464397E0,-4.090733528E0,-2.062096596E0,5.405568342E0
2.907971819E1,1.893726945E0,-1.646379471E0,-3.159948349E0,4.035101073E0
2.909884059E1,4.540613651E0,2.015698910E0,-3.770422459E0,6.236689822E0
2.911798955E1,5.252359867E0,4.657060146E0,-5.047607422E-2,7.019831993E0
2.913712517E1,4.702673435E0,6.801784039E0,1.635999918E0,8.429466132E0
2.915626090E1,2.723625422E0,7.837619781E0,1.847734213E0,8.500620036E0
2.917539653E1,2.842469215E-1,7.830225945E0,8.810701370E-1,7.884765009E0
2.919453226E1,-1.504733324E0,7.737236023E0,-2.151938677E-1,7.885134878E0
2.921366788E1,-1.866557240E0,7.131282806E0,-8.370455503E-1,7.418886416E0
2.923280361E1,-8.316006660E-1,5.479290962E0,-3.111881018E-1,5.550768159E0
2.925192590E1,5.605865717E-1,3.532267094E0,6.723935604E-1,3.639131933E0
2.927107496E1,1.806724072E0,1.053177834E0,1.941838741E0,2.853799768E0
2.929021059E1,2.526572704E0,-4.222182274E0,2.176956654E0,5.380477029E0
2.930933298E1,1.215306759E0,-7.239117622E0,-1.958684921E0,7.597252207E0
2.932848194E1,-2.183529139E0,-5.770944595E0,2.422131062E0,6.628598638E0
2.934761767E1,-1.687532187E0,-2.796345711E0,3.704378843E0,4.938596646E0
2.936673996E1,3.632194400E-1,-3.513244629E0,-1.429544687E-1,3.534862397E0
2.938588903E1,-1.726580381E0,-1.195502186E1,-5.746237755E0,1.337620558E1
2.940502465E1,-5.463613510E0,-1.082707405E1,-7.094326496E0,1.405012717E1
2.942414705E1,-4.039872646E0,2.749895573E0,-3.506909847E0,6.015057218E0
2.944329601E1,-2.517269611E0,2.781696796E0,-2.454825401E0,4.483374969E0
2.946243174E1,-1.771402836E0,-1.142115593E0,-8.603689075E-1,2.276517228E0
2.948155403E1,-3.067811966E0,-6.885704994E0,-9.681133628E-1,7.600108355E0
2.950070309E1,-4.050195217E0,-4.699399948E0,-1.960487843E0,6.506301080E0
2.951982549E1,-2.772844553E0,-9.463338852E-1,-4.362245798E-1,2.962179370E0
2.953897444E1,-1.429264188E0,1.775817871E0,1.181892991E0,2.567722001E0
2.955811017E1,-6.940627098E-1,3.351196766E0,1.530292988E0,3.748871755E0
2.957723246E1,-4.618175030E-1,4.647699356E0,9.181205034E-1,4.759971635E0
2.959638153E1,-8.130218387E-1,6.156446934E0,1.219678521E0,6.328543201E0
2.961551726E1,-5.039539337E-1,7.196533203E0,3.847642839E-1,7.224410236E0
2.963465288E1,-3.208518028E-1,7.858627319E0,1.566881984E-1,7.866735054E0
2.965378861E1,5.212008953E-2,7.772559643E0,7.766187191E-3,7.772738270E0
2.967292424E1,5.794749260E-1,6.051240921E0,2.021119595E-1,6.082282229E0
2.969204663E1,1.129118323E0,3.613095284E0,6.340555549E-1,3.838149575E0
2.971119569E1,4.498964548E-1,1.534265518E0,1.781748772E0,2.393952002E0
2.973033132E1,1.588721275E-1,-2.890872955E-1,2.581835985E0,2.602823250E0
2.974945372E1,7.197816968E-1,-1.644692421E0,2.825663805E0,3.347756680E0
2.976860278E1,2.257761002E0,-2.958305359E0,2.870013714E0,4.699578072E0
2.978773872E1,3.825356483E0,-4.221276283E0,4.555873871E0,7.294416523E0
2.980686080E1,4.942367554E0,-4.821775436E0,4.439516068E0,8.208886545E0
2.982600976E1,6.030700684E0,-3.668692589E0,2.282856464E0,7.418900841E0
2.984514549E1,6.930976391E0,-2.125775337E0,-1.051375151E0,7.325485938E0
2.986426788E1,5.802850723E0,-6.749610901E-1,-3.814990997E0,6.977306450E0
2.988341684E1,9.332545996E-1,3.099393845E-1,-5.017868042E0,5.113318517E0
2.990255257E1,-1.380386353E0,-1.261009216E0,-7.015570164E0,7.260429426E0
2.992167496E1,-2.218859673E0,-4.154262543E0,-8.408889771E0,9.637980219E0
2.994082392E1,-3.059512377E0,-8.102913857E0,-5.138226509E0,1.007071003E1
2.995995965E1,-3.741426945E0,-1.138011169E1,-9.631540775E-1,1.201802328E1
2.997908205E1,-3.448714256E0,-8.706365585E0,-4.014256001E-1,9.373130440E0
2.999823101E1,-2.098267078E0,-3.996393204E0,-1.986037731E0,4.931351665E0
3.001736674E1,2.557995796E0,-4.111804962E-1,-5.010166168E0,5.640405741E0
3.003648913E1,4.523344994E0,3.244673729E0,-3.753390789E0,6.713903481E0
3.005563809E1,5.227158546E0,4.912045479E0,7.826018333E-2,7.173388454E0
3.007477382E1,4.565120697E0,6.883138657E0,2.267746925E0,8.565080318E0
3.009390955E1,2.573172331E0,7.341821671E0,1.244491339E0,7.878598859E0
3.011304517E1,-9.249131382E-2,7.889300346E0,-5.673134327E-2,7.890046454E0
3.013216757E1,-1.866556406E0,7.646659374E0,-9.885523319E-1,7.933011289E0
3.015131663E1,-2.210001707E0,6.562095642E0,-4.873132706E-1,6.941374575E0
3.017045226E1,-8.281038404E-1,4.483058929E0,4.981932640E-1,4.586040761E0
3.018958799E1,8.823871613E-1,3.079603672E0,8.135554790E-1,3.305213820E0
3.020871038E1,2.257370472E0,3.746871948E-1,1.714044571E0,2.859031433E0
3.022785934E1,2.002056837E0,-5.155062675E0,1.768410921E0,5.806046844E0
3.024699507E1,-7.989700437E-1,-7.114567757E0,2.398808956E0,7.550477594E0
3.026611736E1,-1.989600301E0,-4.061752319E0,4.866095543E0,6.643434887E0
3.028526642E1,1.749866009E-1,-1.414685249E0,1.221090317E0,1.876969959E0
3.030440215E1,4.201450944E-1,-6.130608559E0,-3.870492935E0,7.262341135E0
3.032352444E1,-3.013057709E0,-1.692757988E1,-1.117863083E1,2.050812679E1
3.034267351E1,-4.514771938E0,-6.216486931E0,-4.058521748E0,8.689043342E0
3.036180924E1,-5.521303654E0,1.669135571E0,-1.935948253E0,6.084299732E0
3.038093153E1,-3.598279953E0,1.851573467E0,-1.170762062E0,4.212674534E0
3.040008059E1,-2.248135328E0,-9.540309906E-1,8.420242667E-1,2.583271656E0
3.041921632E1,-3.176921844E0,-5.467474937E0,-1.153759241E0,6.427851506E0
3.043835194E1,-3.508194923E0,-3.396357536E0,-1.820184469E0,5.211117696E0
3.045748767E1,-2.529526949E0,1.060485840E-2,9.411489964E-2,2.531299402E0
3.047660996E1,-1.785165906E0,2.642611027E0,1.069856286E0,3.363748329E0
3.049575903E1,-1.651030540E0,4.315293312E0,6.281152964E-1,4.662851814E0
3.051489476E1,-1.371744156E0,5.642776966E0,8.422181606E-1,5.867874006E0
3.053403038E1,-1.299171329E0,6.853652000E0,1.165789366E0,7.072443477E0
3.055316611E1,-8.991010189E-1,7.114974499E0,5.642763376E-1,7.193723135E0
3.057230174E1,-2.696431875E-1,6.991255760E0,3.165529966E-1,7.003611237E0
3.059143747E1,4.232324362E-1,6.194742680E0,9.228672981E-1,6.277391704E0
3.061057319E1,1.268326283E0,4.233933449E0,1.790656805E0,4.768783472E0
3.062970882E1,2.043988943E0,2.231404781E0,1.936109543E0,3.592433473E0
3.064883122E1,2.227241516E0,6.361179352E-1,3.383878708E0,4.100717731E0
3.066798028E1,2.428501606E0,-4.105520248E-1,3.475003719E0,4.259321996E0
3.068711590E1,2.640991688E0,-1.772324562E0,1.638324976E0,3.577719969E0
3.070623830E1,2.972692966E0,-3.747361183E0,1.454744220E0,4.999589989E0
3.072538726E1,4.147430420E0,-5.343890190E0,2.424973488E0,7.186016829E0
3.074452299E1,5.281256676E0,-4.448301315E0,2.334030151E0,7.288810151E0
3.076365872E1,5.758522987E0,-2.197643280E0,1.052872539E0,6.252900412E0
3.078279434E1,5.267484665E0,-5.807437897E-1,-2.011644602E0,5.668365906E0
3.080191674E1,2.074179888E0,5.167360306E-1,-3.553962469E0,4.147274715E0
3.082106569E1,-1.040956855E0,-1.041031837E0,-4.640862465E0,4.868772215E0
3.084020142E1,-2.413593769E0,-4.979988098E0,-6.974678040E0,8.903474046E0
3.085932372E1,-4.205379009E0,-9.374496460E0,-6.298703194E0,1.205155834E1
3.087847278E1,-5.077296257E0,-1.249986172E1,-3.498969793E0,1.393801528E1
3.089760851E1,-4.116222382E0,-8.511284828E0,-2.888325453E0,9.885731133E0
3.091673080E1,-1.596165419E0,-3.004772186E0,-2.723613262E0,4.358264464E0
3.093587986E1,2.768031120E0,-1.388521194E0,-4.132037163E0,5.163692333E0
3.095501548E1,4.713639259E0,1.939456463E0,-2.860205889E0,5.844712496E0
3.097413788E1,5.300131321E0,4.638263702E0,1.409430504E0,7.182713731E0
3.099328684E1,4.607522011E0,7.132021427E0,1.163997889E0,8.570290532E0
3.101242257E1,2.437728882E0,7.712357521E0,1.706222534E0,8.266448813E0
3.103154497E1,-1.052007899E-1,7.602271557E0,-1.187041998E-1,7.603926007E0
3.105069392E1,-1.725019574E0,7.951849937E0,-9.325658083E-1,8.190072585E0
3.106982965E1,-2.076517582E0,7.643599033E0,-7.604457140E-1,7.957060332E0
3.108896528E1,-1.677843332E0,6.416558266E0,7.854480743E-1,6.678645589E0
3.110810101E1,4.755127430E-2,3.691890240E0,2.564570427E0,4.495479523E0
3.112722330E1,2.900837898E0,9.734830856E-1,6.269148588E-1,3.123387915E0
3.114637236E1,3.561799049E0,-2.472930908E0,2.123084068E-1,4.341298723E0
3.116550798E1,1.642580032E0,-7.709713936E0,7.667641640E-1,7.919954887E0
3.118463038E1,-1.671699524E0,-7.620901108E0,3.487945795E0,8.546255254E0
3.120377934E1,-2.093193054E0,-5.718303680E0,1.533486366E0,6.279493179E0
3.122290174E1,-3.457932234E0,-1.121343327E1,-5.028550625E0,1.276654622E1
3.124205080E1,-5.934118748E0,-1.274124718E1,-7.256274700E0,1.581792235E1
3.126118642E1,-2.195884228E0,1.533918381E-1,-3.167833805E0,3.857539062E0
3.128030882E1,-1.842120290E-1,3.222899437E0,-3.310945511E0,4.624216153E0
3.129945778E1,7.804465294E-2,2.988128662E-1,-1.582004786E0,1.611868245E0
3.131859351E1,-2.829489708E0,-6.917181969E0,-7.839652300E-1,7.514520602E0
3.133771580E1,-4.522017479E0,-5.433938980E0,-4.994793534E-1,7.087017324E0
3.135686486E1,-4.186153412E0,-1.812598228E0,-5.832625628E-1,4.598868115E0
3.137600049E1,-2.493695974E0,1.300049782E0,2.600686252E-1,2.824231707E0
3.139512288E1,-1.305150509E0,3.231048584E0,1.531677604E0,3.806458864E0
3.141427184E1,-8.099285364E-1,4.795373440E0,1.536245346E0,5.100160823E0
3.143341475E1,-5.936201215E-1,5.737372875E0,1.234723210E0,5.898675594E0
3.145255037E1,-2.639162540E-2,6.626685143E0,1.343249679E0,6.761506651E0
3.147168246E1,5.626296401E-1,7.224080086E0,5.103756189E-1,7.263908622E0
3.149081808E1,4.296281338E-1,6.899088383E0,-6.353783607E-2,6.912744600E0
3.150995381E1,1.149241924E-1,6.047253132E0,5.030431747E-1,6.069228159E0
3.152908944E1,7.695866823E-1,4.517615795E0,9.468922615E-1,4.679500090E0
3.154821183E1,7.535595894E-1,2.755930424E0,1.376363516E0,3.171337428E0
3.156736079E1,9.800810814E-1,1.258682251E0,2.658820391E0,3.100671831E0
3.158649652E1,1.738412976E0,6.357955933E-2,2.804095984E0,3.299860046E0
3.160563214E1,2.411801815E0,-1.325865746E0,3.035206318E0,4.097216782E0
3.162476788E1,3.663680792E0,-2.773838043E0,3.108607054E0,5.547988126E0
3.164389017E1,4.766780853E0,-5.072549820E0,3.935975552E0,7.996553315E0
3.166303923E1,5.562705040E0,-5.906505585E0,1.486426830E0,8.248633845E0
3.168217779E1,6.667675018E0,-3.719805717E0,-2.070268154E0,7.910806214E0
3.170130019E1,6.085667610E0,-1.141594887E0,-3.645457745E0,7.185259307E0
3.172044915E1,1.651174903E0,6.244087219E-1,-3.646918535E0,4.051700830E0
