"Time (s)","Linear Acceleration x (m/s^2)","Linear Acceleration y (m/s^2)","Linear Acceleration z (m/s^2)","Absolute acceleration (m/s^2)"
7.351524000E-3,6.497907639E-2,-4.571561813E-1,-9.453165531E-2,4.713282172E-1
2.648819100E-2,4.100577831E-1,-5.519599915E-1,5.649121404E-1,8.899061434E-1
4.562485800E-2,6.293454170E-1,-7.825126648E-1,1.027319729E-1,1.009433298E0
6.476142000E-2,-1.030874252E-2,-9.129810333E-1,-1.563501239E0,1.810573600E0
8.389808700E-2,-5.283894539E-1,-8.550786972E-1,-4.177083075E-1,1.088501366E0
1.030347540E-1,-7.660055161E-2,2.669153214E-1,3.259455860E-1,4.281961680E-1
1.221714200E-1,-2.808642387E-2,8.659286499E-1,1.452593505E-1,8.784768368E-1
1.413080870E-1,-5.811138153E-1,1.930606842E0,-6.608162522E-1,2.121700772E0
1.604446490E-1,-5.814201832E-1,1.716678619E0,-4.297243059E-1,1.862712509E0
1.795813160E-1,-3.728647232E-1,-8.798303604E-1,-9.059271812E-1,1.316751162E0
1.987179830E-1,2.896764278E-1,-4.624319077E-1,3.685246110E-1,6.584573570E-1
2.178546490E-1,2.394187450E-1,-1.697225571E-1,-1.683548838E-1,3.383348175E-1
2.369913160E-1,-5.357384682E-2,-1.543712616E-2,8.466839790E-3,5.639281251E-2
2.561279830E-1,5.513062477E-1,-5.954608917E-1,5.104649067E-2,8.130916286E-1
2.752645450E-1,2.337331772E-1,-6.991090775E-1,-6.752482653E-1,9.996724064E-1
2.944012120E-1,-4.070472717E-1,-1.674126148E0,1.833363771E-1,1.732627504E0
3.135378790E-1,-1.260042191E-2,-2.238801956E0,-9.494762123E-2,2.240849843E0
3.326745450E-1,-6.880246401E-1,-2.298044205E0,2.021357417E-3,2.398830790E0
3.518112120E-1,-9.563960433E-1,-2.324184895E0,-2.969455123E-1,2.530751954E0
3.709478790E-1,-6.183809042E-1,-2.772732735E0,-3.768877089E-1,2.865743552E0
3.900844410E-1,-1.260403752E0,-2.864647865E0,-1.214041829E0,3.356891803E0
4.092211080E-1,-8.676383495E-1,1.765787125E0,8.613560200E-1,2.147727792E0
4.283577740E-1,-3.517705202E-2,3.992545128E0,1.523583174E0,4.273518423E0
4.474944410E-1,7.544445992E-2,3.265769005E0,-8.815252781E-2,3.267829544E0
4.666177740E-1,-6.465380192E-1,6.456375122E-3,-6.305160522E-1,9.031077384E-1
4.857677740E-1,-1.588228941E0,-1.588413239E0,-1.652237773E-2,2.246285996E0
5.048910040E-1,-1.136367679E0,1.207032204E0,3.447996080E-1,1.693264602E0
5.240410040E-1,6.782429218E-1,3.034286499E0,1.900706589E-1,3.114969482E0
5.431776700E-1,1.659301043E0,3.143967628E0,-2.913743854E-1,3.566891004E0
5.623143370E-1,1.735589743E0,2.553890228E0,-5.288630128E-1,3.132782013E0
5.814510040E-1,9.451199770E-1,1.942332268E0,-5.314078331E-1,2.224477623E0
6.005876700E-1,3.493809700E-1,1.572964668E0,-4.713036716E-1,1.678812694E0
6.197242330E-1,-1.766952276E-1,9.035806656E-1,-7.622525692E-1,1.195285824E0
6.388608990E-1,-5.904196501E-1,-1.620740891E-1,-5.142143369E-1,7.995497219E-1
6.579842330E-1,-2.578909397E-1,-1.984874249E0,1.973755360E-1,2.011265925E0
6.771342330E-1,1.016433835E0,-3.081165791E0,7.518177032E-1,3.330457961E0
6.962708990E-1,2.417266369E-2,-1.686247826E0,1.880052090E-1,1.696868294E0
7.154075660E-1,6.057262421E-2,-2.891473770E-1,-2.631761432E-1,3.956474830E-1
7.345442330E-1,1.165651083E-1,9.863567352E-2,-9.220267832E-2,1.783753191E-1
7.536808990E-1,5.451905727E-2,2.913665771E-1,-4.621300101E-2,3.000040856E-1
7.728175660E-1,-6.742477417E-4,3.968877792E-1,-1.318254620E-1,4.182084604E-1
7.919542330E-1,-6.602299213E-2,1.874694824E-1,-9.978815913E-2,2.223994583E-1
8.110908990E-1,-1.486954689E-1,-8.233070374E-2,8.143635094E-2,1.884690067E-1
8.302275660E-1,-1.518979073E-1,-2.048597336E-1,2.565243244E-1,3.617253291E-1
8.493642330E-1,-8.244514465E-4,-2.034091949E-1,3.816146851E-1,4.324416124E-1
8.685008990E-1,4.328715801E-2,-1.022052765E-1,4.713395238E-1,4.842320139E-1
8.876375660E-1,-8.070039749E-2,-4.025077820E-2,5.257518291E-1,5.334300940E-1
9.067742330E-1,-3.931032419E-1,2.068996429E-2,6.112040281E-1,7.269997231E-1
9.259108990E-1,-6.458578110E-1,8.139228821E-2,5.422139764E-1,8.472030529E-1
9.450475660E-1,-8.042418361E-1,1.679677963E-1,5.342791677E-1,9.800369077E-1
9.641842330E-1,-9.030025601E-1,2.433042526E-1,6.128144264E-1,1.118102010E0
9.833208990E-1,-8.860414624E-1,2.677688599E-1,5.813419223E-1,1.093036169E0
1.002457566E0,-9.902989864E-1,3.509845734E-1,7.677671909E-1,1.301287329E0
1.021594233E0,-9.998365045E-1,3.560371399E-1,8.190268278E-1,1.340611959E0
1.040730899E0,-9.544392228E-1,3.030786514E-1,8.904895782E-1,1.340068128E0
1.059867670E0,-8.048595190E-1,1.050634384E-1,7.728624344E-1,1.120782545E0
1.079004337E0,-7.546124458E-1,-2.827548981E-1,6.142909527E-1,1.013283598E0
1.098141004E0,-7.120814323E-1,-2.791042328E-1,5.696983337E-1,9.536851317E-1
1.117277670E0,-5.838549137E-1,-1.764469147E-1,4.838711619E-1,7.785572396E-1
1.136414337E0,-4.307928085E-1,-7.045269012E-2,3.614149392E-1,5.667157874E-1
1.155551004E0,-2.124029398E-1,3.498363495E-2,1.602470279E-1,2.683616468E-1
1.174687670E0,3.108322620E-1,-4.129219055E-2,-4.825516939E-1,5.754805622E-1
1.193824441E0,9.121098518E-1,-1.509037018E-1,-8.333940506E-1,1.244693518E0
1.212961108E0,1.649011493E0,-5.290403366E-1,-1.035954475E0,2.018000063E0
1.232097774E0,2.036166668E0,-1.796553135E0,-5.397052169E-1,2.768548282E0
1.251221108E0,1.538722754E0,-4.379149437E0,-2.065110207E-1,4.646209671E0
1.270371212E0,-9.360138178E-1,-6.983589172E0,4.655237198E-1,7.061398723E0
1.289507879E0,-5.424245834E0,-8.528680801E0,2.324015617E0,1.037120474E1
1.308631212E0,-8.025974274E0,-9.020414352E0,1.316395164E0,1.214565907E1
1.327781316E0,-6.950868607E0,-6.137060165E0,-8.967397809E-1,9.315697724E0
1.346917983E0,-4.941790104E0,-2.782195568E0,8.709933758E-1,5.737641595E0
1.366041316E0,-2.853603363E0,-5.065536499E-2,2.219100475E0,3.615248959E0
1.385191420E0,7.467596531E-1,7.555642128E0,3.327364922E0,8.289555794E0
1.404328087E0,6.720309258E0,1.962589455E1,5.077152252E0,2.135686700E1
1.423451524E0,8.738451004E0,2.503678131E1,5.334243774E-1,2.652330081E1
1.442601524E0,8.426156998E0,1.376286411E1,3.083232164E0,1.642932959E1
1.461738191E0,2.619471073E0,1.760274124E1,1.784191728E0,1.788578956E1
1.480861629E0,6.846355200E-1,1.568481159E1,-1.247783899E-1,1.570024236E1
1.500011629E0,7.102898359E-1,7.829888344E0,1.027096629E0,7.928845478E0
1.519148399E0,-4.276049137E-2,2.379425049E0,4.827715158E-1,2.428283418E0
1.538271733E0,-7.868999243E-1,-2.038121223E0,-3.121353984E-1,2.206938631E0
1.557421733E0,-3.509811163E-1,-6.225028038E0,-1.102971315E0,6.331722320E0
1.576558504E0,-1.768484116E-1,-9.751164436E0,-1.323306322E0,9.842135076E0
1.595681941E0,-2.000879765E0,-1.287077808E1,-6.302047968E-1,1.304061373E1
1.614831941E0,-4.746314526E0,-1.492572975E1,-1.115178704E0,1.570186402E1
1.633968712E0,-6.036346912E0,-1.634906578E1,-3.353218555E0,1.774749308E1
1.653092045E0,-4.783219337E0,-1.352073097E1,-1.664282322E0,1.443811584E1
1.672242149E0,-2.890934467E0,-8.417492867E0,9.672096968E-1,8.952495901E0
1.691378816E0,-2.321063995E0,-7.679840565E0,1.290251255E0,8.126009935E0
1.710515587E0,-1.398192883E0,-7.345504284E0,-2.184509635E-1,7.480581351E0
1.729652254E0,-7.114268541E-1,-7.201015472E0,-1.563047409E0,7.402963542E0
1.748789024E0,-5.126709938E-1,-7.659615993E0,-2.016030312E0,7.937060346E0
1.767925795E0,-1.340004683E0,-8.624719620E0,-8.139984608E-1,8.766070646E0
1.787062462E0,-2.673604250E0,-9.843293190E0,-3.090655804E-2,1.019997724E1
1.806199233E0,-3.260219574E0,-1.034659195E1,3.441681862E-1,1.085354543E1
1.825336004E0,-3.885058165E-1,-5.086362362E0,1.604791403E0,5.347651287E0
1.844472670E0,3.001736641E0,6.181994438E0,4.196692944E0,8.052310833E0
1.863596108E0,8.590963364E0,3.071334457E1,1.285445118E1,3.438533265E1
1.882746212E0,-6.567213535E-1,4.994337845E1,3.196091890E0,5.004984852E1
1.901882879E0,3.107032776E0,2.375473022E1,7.368350983E0,2.506458571E1
1.921006316E0,3.571674585E0,2.331352043E1,3.610043049E0,2.386020757E1
1.940156420E0,1.989918947E0,1.992991829E1,4.353055000E0,2.049659748E1
1.959293191E0,1.031827688E0,1.268942642E1,1.501169682E0,1.281950552E1
1.978416524E0,6.282551289E-1,4.746067047E0,-3.814486265E-1,4.802640938E0
1.997566629E0,1.477199078E0,-2.566060066E0,-3.167394400E-1,2.977768502E0
2.016703399E0,1.877115250E0,-9.138766289E0,-8.288189769E-1,9.366298727E0
2.035826837E0,4.237372875E-1,-1.434940529E1,-7.400534153E-1,1.437472311E1
2.054976941E0,-1.891965270E0,-1.874014473E1,-1.140732050E0,1.886991857E1
2.074113608E0,-3.864788532E0,-2.001286316E1,-1.840973377E0,2.046559223E1
2.093237045E0,-4.795546532E0,-1.597190285E1,-1.126976490E0,1.671433586E1
2.112387149E0,-4.758756161E0,-9.558586121E0,3.652882576E-2,1.067771807E1
2.131523920E0,-4.408066273E0,-6.907053471E0,1.003609896E0,8.255038990E0
2.150647358E0,-3.140333652E0,-5.659392357E0,4.181042910E-1,6.485771234E0
2.169797462E0,-1.402361155E0,-5.470171452E0,-1.124990702E0,5.758037565E0
2.188934233E0,-1.102296114E0,-6.461190224E0,-2.024128914E0,6.859966012E0
2.208071004E0,-1.900378108E0,-7.473451614E0,-2.303793907E0,8.048066995E0
2.227207774E0,-2.793765545E0,-8.846519470E0,-1.553748608E0,9.406389711E0
2.246344545E0,-3.164169073E0,-1.048742008E1,-8.637771606E-1,1.098836006E1
2.265467983E0,-2.379054785E0,-1.210565662E1,-4.354982376E-1,1.234489703E1
2.284617983E0,-1.376346946E0,-1.329897785E1,7.973146439E-1,1.339376174E1
2.303754754E0,3.470041752E-1,-1.209381104E1,2.742504597E0,1.240572484E1
2.322878295E0,1.223345160E0,-4.915182114E0,3.103310108E0,5.940212304E0
2.342028295E0,3.333728790E0,8.048937798E0,3.232149839E0,9.292251606E0
2.361165170E0,1.052845669E1,4.290798950E1,6.802113533E0,4.470137259E1
2.380288608E0,-3.304673672E0,5.428102112E1,1.124565125E1,5.553210597E1
2.399438712E0,-2.210661173E0,2.142094040E1,6.238511086E0,2.242014119E1
2.418575483E0,-2.534416914E-1,2.185720444E1,2.788201809E0,2.203578199E1
2.437698920E0,3.510019779E0,1.773672104E1,1.697217226E-1,1.808149102E1
2.456849024E0,3.414730787E0,1.031563854E1,5.712080002E-1,1.088113337E1
2.475985795E0,2.380779505E0,3.266264915E0,2.155865669E0,4.580868295E0
2.495109233E0,9.822757244E-1,-3.602902412E0,2.608022928E0,4.554948407E0
2.514259337E0,5.987141132E-1,-9.905613899E0,8.905750513E-2,9.924090716E0
2.533396108E0,1.651868820E-1,-1.498209190E1,-2.250722170E0,1.515110936E1
2.552519649E0,-2.158673286E0,-1.834589767E1,-3.054112196E0,1.872323244E1
2.571669754E0,-4.669413567E0,-1.927720261E1,-2.115441084E0,1.994715655E1
2.590806524E0,-4.839848518E0,-1.532123947E1,9.003226757E-1,1.609270311E1
2.609929962E0,-4.894298077E0,-8.075780869E0,3.397612095E0,1.003574403E1
2.629080066E0,-4.914601803E0,-5.319761753E0,2.423503876E0,7.637181877E0
2.648216941E0,-3.138295174E0,-3.588526249E0,-4.622769356E-1,4.789584241E0
2.667340379E0,8.946657181E-3,-3.393822670E0,-2.671330690E0,4.319041562E0
2.686490483E0,1.843478680E-1,-5.180390835E0,-2.515080929E0,5.761602678E0
2.705613920E0,-1.194722176E0,-9.278798103E0,-7.337814569E-1,9.384129717E0
2.724764129E0,-2.437927961E0,-1.277374268E1,8.304053545E-2,1.300457190E1
2.743900899E0,-3.392405748E0,-1.372927094E1,1.274548054E0,1.419949893E1
2.763024337E0,-4.079105377E0,-1.494698715E1,2.572582483E0,1.570572209E1
2.782174545E0,-3.836529732E0,-1.606360817E1,2.820199728E0,1.675446192E1
2.801297983E0,-1.821251869E0,-9.997206688E0,2.187875032E0,1.039460904E1
2.820448087E0,2.353737354E-1,-4.521236420E-1,6.031372547E-1,7.896778653E-1
2.839584962E0,3.960885048E0,1.854380798E1,7.381327629E0,2.034810611E1
2.858708399E0,-2.169694901E-1,6.399291229E1,7.442710400E0,6.442463688E1
2.877858608E0,-5.505421758E-1,2.744189262E1,9.044557571E0,2.889921433E1
2.896995379E0,-3.622854352E-1,2.015097809E1,4.318337440E0,2.061167647E1
2.916118816E0,-3.468945622E-1,2.476052094E1,2.558367252E0,2.489475800E1
2.935269024E0,9.886873960E-1,1.757972717E1,3.779677153E-1,1.761156353E1
2.954405795E0,3.025424957E0,9.063800812E0,1.171550870E0,9.626952413E0
2.973529337E0,3.770456791E0,2.544985771E0,2.539808750E-1,4.556073230E0
2.992679441E0,2.922381639E0,-2.548476219E0,-7.941323519E-1,3.957990864E0
3.011816316E0,1.808113933E0,-7.073200226E0,-9.534758329E-1,7.362645828E0
3.030939754E0,3.140103817E-1,-1.180844593E1,-1.485397339E0,1.190564585E1
3.050089962E0,-1.968916297E0,-1.678257942E1,-1.980801582E0,1.701338233E1
3.069226733E0,-3.637332916E0,-1.958335876E1,-2.123486996E0,2.003115893E1
3.088350274E0,-3.959236383E0,-1.743618011E1,1.020368338E-1,1.788033392E1
3.107500379E0,-3.886572361E0,-9.897454262E0,2.025043249E0,1.082431733E1
3.126637254E0,-3.613482952E0,-6.282857418E0,1.484766006E0,7.398384045E0
3.145760691E0,-1.999404073E0,-5.094247818E0,-3.582310379E-1,5.484278162E0
3.164910899E0,-1.891438961E-1,-4.400913715E0,-1.756119013E0,4.742127258E0
3.184047774E0,9.958362579E-2,-6.014461994E0,-1.436147451E0,6.184350368E0
3.203171212E0,-1.181466341E0,-9.190034866E0,-2.111325860E-1,9.268073183E0
3.222321420E0,-2.232110977E0,-1.254518318E1,5.313941836E-1,1.275328665E1
3.241458191E0,-2.644378424E0,-1.301242065E1,5.784322619E-1,1.329098990E1
3.260595066E0,-2.375585556E0,-1.359267807E1,-3.478750587E-1,1.380309099E1
3.279731941E0,-2.257699251E0,-1.446201992E1,1.298382521E0,1.469465968E1
3.298855379E0,-1.673811078E0,-1.375169754E1,3.034198284E0,1.418157918E1
3.318005587E0,-1.151736975E0,-6.020338058E0,1.812478304E0,6.391873434E0
3.337142462E0,1.700927734E0,5.755625725E0,-1.572058201E-1,6.003756850E0
3.356265899E0,5.276487350E0,4.072800446E1,6.140964031E0,4.152496966E1
3.375416108E0,-1.669716001E0,5.407649231E1,1.114445114E1,5.523815496E1
3.394552879E0,9.911526442E-1,1.853530502E1,9.760536194E0,2.097159943E1
3.413676420E0,-3.888498783E0,2.491293716E1,8.204029083E0,2.651567374E1
3.432826629E0,-4.921578407E0,2.446266747E1,2.087393761E0,2.503999294E1
3.451963399E0,-1.985346198E0,1.528776741E1,7.090067863E-2,1.541630497E1
3.471086941E0,-5.384564400E-3,7.760530472E0,8.535102606E-1,7.807326172E0
3.490237149E0,9.460914135E-1,1.330956459E0,6.898891926E-2,1.634409230E0
3.509373920E0,2.160911560E0,-5.127559662E0,-4.557606876E-1,5.582931547E0
3.528497462E0,2.799835443E0,-1.102734184E1,-9.864491224E-2,1.137765694E1
3.547647670E0,1.701584816E0,-1.642842293E1,-3.343531191E-1,1.651969318E1
3.566784545E0,-3.788475394E-1,-1.954777908E1,-9.184011221E-1,1.957300828E1
3.585907983E0,-2.035737991E0,-1.805224228E1,-1.576664209E0,1.823495409E1
3.605058191E0,-3.368509054E0,-1.273452377E1,-9.768370390E-1,1.320867743E1
3.624195066E0,-3.071679831E0,-9.607631683E0,2.634595633E-1,1.009015433E1
3.643318504E0,-2.441797256E0,-7.808141708E0,1.007581711E0,8.242855797E0
3.662468712E0,-9.234912992E-1,-7.675826073E0,-1.671600938E-1,7.732986782E0
3.681605587E0,4.067056179E-1,-7.515853405E0,-1.893745899E0,7.761426119E0
3.700742358E0,1.174107075E0,-7.899471760E0,-2.916611671E0,8.502164733E0
3.719879233E0,1.088208199E0,-8.232634544E0,-2.906756401E0,8.798278320E0
3.739016108E0,3.832798004E-1,-9.402608871E0,-1.591309309E0,9.544015000E0
3.758152983E0,1.382696629E-2,-1.131917000E1,6.518125534E-2,1.131936611E1
3.777276420E0,-7.468252778E-1,-1.242133904E1,1.585043550E0,1.254431244E1
3.796426629E0,-1.797792673E0,-1.329528141E1,1.810394287E0,1.353787626E1
3.815563504E0,-2.431137800E0,-9.142865181E0,3.088600636E-1,9.465611933E0
3.834700379E0,-7.689331770E-1,5.099477768E-1,-1.015298843E0,1.371909876E0
3.853823816E0,1.478239298E0,1.822832489E1,5.459011555E0,1.908553973E1
3.872974024E0,1.419790745E0,6.671540833E1,6.376013279E0,6.703443189E1
3.892110899E0,-1.820726156E0,2.610188293E1,1.110589790E1,2.842471292E1
3.911234441E0,-4.746870995E-1,1.681513977E1,7.898058891E0,1.858369144E1
3.930384545E0,-2.149129391E0,2.540632629E1,4.606716156E0,2.590988241E1
3.949521420E0,-9.240660071E-1,1.745720482E1,1.343913436E0,1.753322564E1
3.968644962E0,1.267528057E0,8.771685600E0,-3.522773981E-1,8.869791148E0
3.987795170E0,1.779641628E0,2.438097000E0,-3.255225420E-1,3.036018154E0
4.006931941E0,2.064842463E0,-3.472742558E0,-2.186195850E-1,4.046147524E0
4.026055483E0,1.218585253E0,-8.573661804E0,-4.123876095E-1,8.669641878E0
4.045205691E0,-7.782536745E-1,-1.362088013E1,-1.491422892E0,1.372437235E1
4.064342566E0,-3.557314873E0,-1.783718681E1,-1.761572123E0,1.827355627E1
4.083479337E0,-4.516199589E0,-1.913021088E1,-2.470795631E0,1.981075107E1
4.102616212E0,-3.848369598E0,-1.507315731E1,-1.386102676E0,1.561830018E1
4.121753087E0,-3.225994587E0,-1.113456440E1,1.345098972E0,1.167025521E1
4.140876629E0,-2.173213482E0,-9.476681709E0,2.039032936E0,9.934183830E0
4.160026837E0,-7.012772560E-1,-8.255341530E0,8.120403290E-1,8.324774055E0
4.179163608E0,1.179726720E-1,-7.014160156E0,-7.469204068E-1,7.054803353E0
4.198300483E0,1.063432217E0,-6.392616272E0,-1.568093896E0,6.667484484E0
4.217437358E0,1.540201187E0,-6.719839096E0,-1.824413061E0,7.131405205E0
4.236574233E0,1.852839470E0,-7.935424805E0,-1.628610611E0,8.310015250E0
4.255711108E0,2.147669315E0,-1.001927185E1,-1.827704072E0,1.040859232E1
4.274834545E0,2.781102657E0,-1.262926388E1,-1.029789090E0,1.297279090E1
4.293984754E0,3.279983044E0,-1.475365448E1,1.170612574E0,1.515912079E1
4.313121629E0,2.058839798E0,-1.463776588E1,1.915016294E0,1.490537818E1
4.332258504E0,3.184972107E-1,-8.141598701E0,6.579291821E-1,8.174346500E0
4.351395379E0,-1.125884414E0,1.220267296E0,9.839365482E-1,1.929973864E0
4.370518920E0,1.310238838E0,3.154263306E1,6.394801140E0,3.221099048E1
4.389669024E0,-7.426726341E0,7.106594849E1,1.124090862E1,7.233175876E1
4.408805899E0,-7.265133381E0,2.209114265E1,7.432123184E0,2.441387314E1
4.427929441E0,-7.936975479E0,1.428305340E1,6.716783524E0,1.766681564E1
4.447079649E0,-8.562870026E0,2.541547012E1,6.472652435E0,2.758920249E1
4.466216524E0,-4.185808659E0,1.820850945E1,1.021143198E0,1.871132127E1
4.485340066E0,-1.604840517E0,9.773092270E0,1.046096087E0,9.959074386E0
4.504490170E0,4.511865973E-2,2.093260765E0,6.699398756E-1,2.198316574E0
4.523627045E0,1.417968273E0,-5.038459301E0,-6.745350361E-2,5.234620915E0
4.542750587E0,3.178168535E0,-1.105058193E1,-7.301640511E-2,1.149875853E1
4.561900795E0,3.980428457E0,-1.633159065E1,-7.967616320E-1,1.682853211E1
4.581037670E0,3.364133358E0,-1.948480606E1,-2.758177280E0,1.996453361E1
4.600161212E0,7.661571503E-1,-1.785532379E1,-3.199713469E0,1.815592880E1
4.619311316E0,-1.867092133E0,-1.376572990E1,-1.539669394E0,1.397683565E1
4.638448191E0,-2.200369596E0,-1.021378899E1,2.914798260E-1,1.045218027E1
4.657571733E0,-1.846291184E0,-7.825269699E0,8.995400667E-1,8.090291054E0
4.676721941E0,-8.430321217E-1,-7.147280216E0,-2.201492786E-1,7.200193286E0
4.695845483E0,9.631432295E-1,-6.715313911E0,-1.906618357E0,7.046863087E0
4.714995691E0,1.983071089E0,-6.853855133E0,-3.018048763E0,7.747032946E0
4.734132566E0,1.622819543E0,-7.929049015E0,-3.138170481E0,8.680522768E0
4.753269337E0,1.123474836E0,-9.782516479E0,-1.960240841E0,1.004003827E1
4.772406212E0,4.225279689E-1,-1.167400932E1,-9.078344107E-1,1.171687616E1
4.791529754E0,-5.352595448E-1,-1.303031063E1,-3.609877825E-1,1.304629488E1
4.810679962E0,-1.598304987E0,-1.345313168E1,1.233310699E-1,1.354830400E1
4.829816837E0,-1.572263718E0,-1.124335861E1,-2.049139261E0,1.153620812E1
4.848953712E0,1.977872699E-1,-3.514084339E0,-8.848888874E-1,3.629178542E0
4.868077254E0,3.856752396E0,7.825870514E0,1.768373251E0,8.902018439E0
4.887227462E0,2.923544407E0,4.172697067E1,8.225214958E0,4.263028682E1
4.906364233E0,-1.064464760E1,3.790518188E1,1.220585823E1,4.122007170E1
4.925487774E0,-6.886278629E0,1.680119896E1,7.644956589E0,1.970143348E1
4.944637983E0,-6.518400192E0,2.913878059E1,7.000007153E0,3.066852092E1
4.963774858E0,-3.563147545E0,2.410075378E1,5.258002281E0,2.492366228E1
4.982898399E0,-2.530352354E0,1.370334530E1,1.842418194E0,1.405627476E1
5.002048608E0,-1.870637417E0,7.759273529E0,2.014171124E0,8.231797821E0
5.021185483E0,4.328615665E-1,2.460047722E0,1.563724518E0,2.946937104E0
5.040309024E0,3.320297956E0,-3.332820415E0,-2.049864531E-1,4.708937235E0
5.059459129E0,4.574975014E0,-8.201142311E0,-1.758112431E0,9.554061487E0
5.078596004E0,3.398481369E0,-1.206090164E1,-2.160012722E0,1.271537176E1
5.097719545E0,4.899406433E-1,-1.531840134E1,-2.579885960E0,1.554185552E1
5.116869754E0,-2.749222994E0,-1.767891502E1,-2.717089415E0,1.809654217E1
5.136006629E0,-3.424753666E0,-1.535248375E1,-2.734197140E0,1.596569851E1
5.155130170E0,-1.828840971E0,-1.128734398E1,-7.483977079E-1,1.145900923E1
5.174280379E0,-3.741742373E-1,-8.181060791E0,8.177663088E-1,8.230340440E0
5.193417254E0,9.003427029E-1,-6.494312286E0,1.387441158E0,6.701619358E0
5.212540795E0,1.709959865E0,-5.414858818E0,-4.730876684E-1,5.698111152E0
5.231690899E0,1.689601541E0,-6.060412407E0,-2.294330120E0,6.696812869E0
5.250814441E0,9.398535490E-1,-7.923293591E0,-2.593466282E0,8.389754071E0
5.269964649E0,2.938154936E-1,-1.057216072E1,-2.024900198E0,1.076833927E1
5.289101524E0,-2.082602531E-1,-1.218212318E1,-2.162595272E0,1.237434103E1
5.308238399E0,-9.815993905E-1,-1.259040737E1,-2.262496948E0,1.282968385E1
5.327361941E0,-1.453105092E0,-1.318732262E1,-9.807372093E-2,1.326750205E1
5.346512149E0,-1.314627886E0,-1.218919754E1,2.562614441E0,1.252484634E1
5.365649024E0,-1.432512760E0,-7.274588585E0,4.833202362E-1,7.430028959E0
5.384772566E0,1.286942363E0,2.754859924E-1,-2.972539186E0,3.250861792E0
5.403922774E0,6.899084091E0,3.016134262E1,8.829364777E-1,3.095292437E1
5.423059649E0,2.945196629E0,5.913382339E1,9.731989861E0,6.000162397E1
5.442183087E0,1.562894583E-1,1.408713627E1,1.026477051E1,1.743093079E1
5.461333295E0,-8.567489624E0,2.233845139E1,9.339403152E0,2.568331637E1
5.480470170E0,-1.046177197E1,3.041520691E1,6.063602924E0,3.273073119E1
5.499593712E0,-5.305144310E0,1.883331299E1,3.165800571E-1,1.956881338E1
5.518743920E0,-3.226077557E-2,1.031237888E1,5.472044945E-1,1.032693719E1
5.537880795E0,1.300818563E0,4.968403816E0,1.736892581E0,5.421619800E0
5.557004337E0,2.713954210E0,-1.617346764E0,1.114664674E0,3.350199299E0
5.576154545E0,4.566536427E0,-9.065197945E0,-4.331680536E-1,1.015966059E1
5.595291420E0,4.499479294E0,-1.521720314E1,-1.881323099E0,1.597961082E1
5.614414962E0,3.618152142E0,-1.908880234E1,-2.584357977E0,1.959980372E1
5.633565170E0,2.185065746E0,-1.876340675E1,-2.191211700E0,1.901687025E1
5.652702045E0,-7.085224986E-1,-1.426494980E1,-6.419753432E-1,1.429695524E1
5.671825587E0,-2.495217085E0,-1.165800762E1,3.633022308E-2,1.192210426E1
5.690975795E0,-4.608129978E0,-8.847841263E0,5.748736858E-2,9.976094512E0
5.710099337E0,-3.466657639E0,-7.986322403E0,-8.017330766E-1,8.743102232E0
5.729249545E0,5.024381876E-1,-6.857194424E0,-1.319793940E0,7.001101023E0
5.748386316E0,2.894093037E0,-6.230507851E0,-2.096424341E0,7.182617740E0
5.767523191E0,4.122458935E0,-6.360140800E0,-2.657254696E0,8.031628801E0
5.786646733E0,4.196336269E0,-7.674988747E0,-2.610274553E0,9.128429415E0
5.805796941E0,3.977928162E0,-9.683919907E0,-2.033519268E0,1.066477463E1
5.824933816E0,3.278426170E0,-1.152855110E1,-8.513790965E-1,1.201584017E1
5.844057358E0,2.127856731E0,-1.315652657E1,-3.874654770E-1,1.333312023E1
5.863207566E0,3.954430521E-1,-1.384640598E1,6.889606714E-1,1.386917448E1
5.882344441E0,-1.246975660E0,-1.145782757E1,-3.383344412E-1,1.153044800E1
5.901467983E0,-7.971898317E-1,-3.672608852E0,5.203785896E-1,3.793990154E0
5.920618191E0,2.022583008E0,6.540908813E0,-2.213960409E0,7.195550766E0
5.939755066E0,2.655486107E0,3.973576355E1,7.859487057E0,4.059253685E1
5.958878608E0,-8.503911972E0,4.520538330E1,1.179591560E1,4.748670154E1
5.978028816E0,-4.304839969E-1,1.418214512E1,6.423039436E0,1.557478707E1
5.997165691E0,-4.960130692E0,2.567734528E1,7.194360733E0,2.712356509E1
6.016289233E0,-8.811244011E0,2.986743164E1,8.231500626E0,3.220961186E1
6.035439441E0,-6.953682899E0,1.756690598E1,1.977135181E0,1.899628793E1
6.054576316E0,-3.038559675E0,1.017312717E1,1.436740160E0,1.071399009E1
6.073699858E0,-2.773352861E-1,4.375509262E0,1.719555259E0,4.709444389E0
6.092850066E0,2.306368113E0,-2.372694492E0,-1.770657301E-1,3.313663425E0
6.111986941E0,4.532638550E0,-8.635791779E0,-2.745003223E0,1.013196696E1
6.131110483E0,4.439639568E0,-1.305076408E1,-2.556954145E0,1.402037293E1
6.150260691E0,3.640070200E0,-1.673634720E1,-2.707802773E0,1.734034672E1
6.169397566E0,1.589019299E0,-1.872709274E1,-3.943508387E0,1.920365182E1
6.188521108E0,-3.851960301E-1,-1.663744164E1,-3.175316334E0,1.694212129E1
6.207671316E0,-1.636018455E-1,-1.321614170E1,2.117025852E-2,1.321717123E1
6.226808191E0,-2.227230370E-2,-1.051812553E1,2.415920019E0,1.079204014E1
6.245931733E0,2.499898672E-1,-8.227185249E0,2.267891884E0,8.537704941E0
6.265081941E0,7.998367548E-1,-6.811230183E0,3.950792551E-1,6.869401943E0
6.284218816E0,1.289961576E0,-5.917622089E0,-2.619040012E0,6.598607629E0
6.303355691E0,1.073045969E0,-5.804429054E0,-4.041469574E0,7.153761291E0
6.322492566E0,9.315763414E-2,-7.452639580E0,-3.350109100E0,8.171520424E0
6.341616108E0,-8.529186845E-1,-1.039796829E1,-1.846152782E0,1.059497499E1
6.360766316E0,-2.045734644E0,-1.257945633E1,-1.310029745E0,1.281186675E1
6.379889858E0,-2.130358219E0,-1.345729256E1,-3.761992455E-1,1.363006511E1
6.399040170E0,-8.119640350E-1,-1.335422707E1,2.302178860E0,1.357551817E1
6.418177045E0,4.734575748E-1,-1.015191555E1,2.950402975E0,1.058255305E1
6.437300587E0,-9.105405807E-1,-1.468734741E0,1.342147827E0,2.188064597E0
6.456450795E0,2.172356844E0,1.078929615E1,-1.666441083E0,1.113126550E1
6.475587670E0,-9.393942952E-1,5.784024048E1,5.257561684E0,5.808629645E1
6.494711212E0,-4.406326771E0,3.214185333E1,1.236131668E1,3.471766987E1
6.513861420E0,-1.627178669E0,9.341856956E0,9.052709579E0,1.310990284E1
6.532998295E0,-7.645059586E0,2.677952957E1,9.146120071E0,2.931282403E1
6.552121837E0,-8.001318932E0,2.874632645E1,3.920793295E0,3.009559783E1
6.571272045E0,-2.460989237E0,1.465054226E1,-1.120765448E0,1.489801905E1
6.590408920E0,-3.286952376E-1,7.644304276E0,1.237885237E0,7.750857261E0
6.609532462E0,-6.982535124E-2,2.261755943E0,9.312410355E-1,2.446962483E0
6.628682670E0,1.700588584E0,-4.022531033E0,-7.147605419E-1,4.425340673E0
6.647819545E0,2.933585167E0,-9.990159035E0,-7.750553489E-1,1.044078111E1
6.666943087E0,3.373352289E0,-1.644799042E1,-5.470895767E-2,1.679044036E1
6.686093399E0,4.104980469E0,-2.154361534E1,-1.159026265E0,2.196182070E1
6.705216941E0,3.337507963E0,-2.064366913E1,-2.401778698E0,2.104919417E1
6.724367149E0,1.747113764E-1,-1.447049332E1,-2.291812420E0,1.465189766E1
6.743504024E0,-5.125254393E-1,-1.025434399E1,-1.918901801E0,1.044492398E1
6.762627566E0,-8.041676283E-1,-6.909893990E0,-1.791441441E-2,6.956553849E0
6.781777774E0,-6.423718929E-1,-5.491363525E0,3.508820534E-1,5.539930797E0
6.800914649E0,9.258481860E-1,-5.785002708E0,-1.014093757E0,5.945741110E0
6.820051524E0,2.016433477E0,-6.175613403E0,-2.150008202E0,6.843006660E0
6.839188399E0,2.171171427E0,-7.549567223E0,-3.243718624E0,8.498921174E0
6.858325274E0,1.423439145E0,-9.746644974E0,-3.062896967E0,1.031526079E1
6.877448920E0,7.817628384E-1,-1.219547367E1,-1.375447512E0,1.229766592E1
6.896599129E0,-8.820080757E-1,-1.304923248E1,8.809908628E-1,1.310864415E1
6.915736004E0,-2.635733128E0,-1.301077652E1,2.530851603E0,1.351416311E1
6.934872879E0,-3.138881683E0,-1.138626099E1,8.920081854E-1,1.184462731E1
6.954009754E0,-2.532198191E0,-5.385129452E0,1.319855690E0,6.095380704E0
6.973133295E0,5.713069439E-2,4.826235771E0,-6.355979443E-1,4.868244076E0
6.992283504E0,1.827226639E0,6.111704254E1,7.545727730E0,6.160819469E1
7.011420379E0,-7.793039799E0,4.853341293E1,1.676696014E1,5.193606255E1
7.030544024E0,-3.839551449E0,1.084091568E1,6.825941086E0,1.337389546E1
7.049694233E0,-8.769487381E0,1.683533096E1,1.004216957E1,2.147504243E1
7.068831108E0,-9.842947960E0,2.512217712E1,5.114708900E0,2.746211309E1
7.087954649E0,-3.132915258E0,1.383330631E1,-2.226910830E0,1.435739020E1
7.107104858E0,1.765547037E0,5.630592346E0,-2.376370192E0,6.361435514E0
7.126241733E0,3.180640936E0,-2.172470093E-3,3.806205988E-1,3.203334750E0
7.145365274E0,2.944017172E0,-5.947837830E0,1.585356832E0,6.823295995E0
7.164515587E0,3.147101879E0,-1.270167446E1,1.892295480E-1,1.308711550E1
7.183652462E0,2.445235252E0,-1.902802658E1,-2.955892801E0,1.941088028E1
7.202789337E0,2.021185160E0,-2.091621590E1,-3.719619989E0,2.134031044E1
7.221926212E0,3.889919519E-1,-1.617246437E1,-1.030780435E0,1.620994839E1
7.241063087E0,-4.080876708E-1,-1.185360432E1,8.534070253E-1,1.189128985E1
7.260186629E0,-1.408885241E0,-8.627678871E0,1.850080132E0,8.935580385E0
7.279336837E0,-2.361207247E0,-6.608039379E0,6.350352764E-1,7.045903342E0
7.298473816E0,-1.356503963E0,-6.093189240E0,-1.897182465E0,6.524289955E0
7.317610691E0,-3.917371631E-1,-6.048334122E0,-2.427004814E0,6.528870961E0
7.336747566E0,-2.475921959E-1,-7.759990692E0,-2.424422264E0,8.133669575E0
7.355884441E0,1.708745956E-2,-1.008568192E1,-1.603034973E0,1.021229616E1
7.375007983E0,6.456862092E-1,-1.184481907E1,-7.703936100E-1,1.188739483E1
7.394158191E0,1.030797720E0,-1.244330311E1,1.009664893E0,1.252668190E1
7.413295170E0,1.260180473E-1,-1.307535839E1,2.295540333E0,1.327593247E1
7.432432045E0,-7.320836186E-1,-1.343333340E1,-6.664824486E-2,1.345343207E1
7.451555587E0,-1.493130445E0,-8.938891411E0,-3.647394180E-1,9.070074588E0
7.470705795E0,-2.862440348E-1,-2.828512192E-1,-1.580751061E0,1.631169635E0
7.489842670E0,4.814785719E-1,2.205244064E1,6.016381264E0,2.286348188E1
7.508966212E0,-1.105915546E1,6.682683563E1,7.656044960E0,6.816704412E1
7.528116524E0,-6.583995342E0,1.652621460E1,1.405099297E1,2.266925599E1
7.547240066E0,-5.003376961E0,1.004329300E1,4.624839306E0,1.213633610E1
7.566390274E0,-1.033311462E1,2.642431641E1,1.057113266E1,3.027815386E1
7.585527149E0,-8.535808563E0,2.212441635E1,2.025686026E0,2.380027795E1
7.604650691E0,-6.890865564E-1,1.071730232E1,-1.049049616E0,1.079054746E1
7.623801004E0,6.619372368E-1,5.550745010E0,8.308166265E-1,5.651476563E0
7.642937879E0,8.703491092E-1,1.597995758E-1,1.226550341E0,1.512438169E0
7.662061420E0,2.355909348E0,-5.613868713E0,-6.364187002E-1,6.121344587E0
7.681211629E0,2.692106724E0,-1.075846100E1,-3.224353552E0,1.154938862E1
7.700348504E0,2.315870762E0,-1.451575089E1,-4.156649590E0,1.527573294E1
7.719472045E0,1.857090473E0,-1.730801201E1,-3.241585970E0,1.770660736E1
7.738622358E0,6.150922179E-1,-1.712340736E1,-1.785294652E0,1.722720799E1
7.757759233E0,-1.189268947E0,-1.272525978E1,2.170759439E-1,1.278255526E1
7.776882774E0,-2.351141691E0,-9.922708511E0,1.499276519E0,1.030707725E1
7.796032983E0,-3.230128288E0,-8.786266327E0,1.866582870E0,9.545487748E0
7.815169858E0,-2.411268234E0,-7.972282887E0,5.352662802E-1,8.346137964E0
7.834293504E0,-6.318495274E-1,-7.459712029E0,-1.098117948E0,7.566531596E0
7.853443712E0,4.492837787E-1,-7.849861145E0,-2.328222752E0,8.200170553E0
7.872580587E0,1.335083365E0,-8.397821426E0,-2.540624619E0,8.874718348E0
7.891717462E0,2.539800882E0,-9.166238785E0,-1.982315063E0,9.715971130E0
7.910854337E0,3.251262188E0,-1.018837452E1,-1.490875959E0,1.079798094E1
7.929991316E0,2.866814137E0,-1.144667625E1,-4.264941216E-1,1.180791759E1
7.949128191E0,1.608551741E0,-1.252176857E1,9.427034855E-2,1.262501539E1
7.968265066E0,-9.105724096E-2,-1.065149307E1,-7.746545076E-1,1.068001338E1
7.987388608E0,-6.944799423E-1,-1.969246864E0,8.127276897E-1,2.240705670E0
8.006538816E0,-2.966374159E-1,1.246645546E1,5.160148144E-1,1.248065610E1
8.025675691E0,-3.383677244E0,6.570211792E1,4.580411911E0,6.594844762E1
8.044799337E0,-5.982552528E0,3.384585571E1,1.337217331E1,3.688018306E1
8.063949545E0,-3.285143852E0,1.281918240E1,5.272728920E0,1.424518437E1
8.083086420E0,-8.634442329E0,2.152894974E1,7.613007545E0,2.441325777E1
8.102209962E0,-7.016538620E0,2.031818008E1,2.062761307E0,2.159433352E1
8.121360170E0,-4.840895653E0,1.082916927E1,7.905700207E-1,1.188823699E1
8.140497149E0,-2.521274567E0,3.752798080E0,3.709192276E-1,4.536287022E0
8.159620691E0,-4.345534444E-1,-2.943452835E0,8.623468876E-2,2.976606744E0
8.178770899E0,9.477138519E-1,-8.822791100E0,-3.944652081E-1,8.882308660E0
8.197907774E0,1.440527797E0,-1.379306984E1,-1.642382741E0,1.396500329E1
8.217031316E0,1.096176863E0,-1.835431290E1,-3.716218472E0,1.875880288E1
8.236181629E0,7.792880535E-1,-1.963689423E1,-3.680809498E0,1.999408071E1
8.255305170E0,3.820188344E-1,-1.468769264E1,-2.288230658E0,1.486977650E1
8.274455379E0,-2.102802247E-1,-1.072464657E1,-9.243582487E-1,1.076646181E1
8.293592254E0,-4.605081081E-1,-8.508817673E0,1.942094564E-1,8.523483045E0
8.312729233E0,-5.665168166E-3,-7.047158241E0,6.948796511E-1,7.081336675E0
8.331866108E0,8.103925586E-1,-7.131130219E0,-5.600188971E-1,7.198845425E0
8.351002983E0,8.263722658E-1,-7.309636116E0,-2.074868202E0,7.643215902E0
8.370139858E0,7.805066109E-1,-8.088068008E0,-2.453043461E0,8.487841710E0
8.389276733E0,1.382516623E-1,-8.914403915E0,-1.539005637E0,9.047333808E0
8.408413712E0,3.719765246E-1,-9.373532295E0,-1.145808697E0,9.450627058E0
8.427550587E0,9.529920816E-1,-1.044277859E1,9.157121181E-2,1.048657255E1
8.446674129E0,1.251215100E0,-1.239558029E1,1.237374544E0,1.251986604E1
8.465824337E0,2.069234371E0,-1.194333076E1,-4.742658138E-2,1.212135017E1
8.484947983E0,2.555072308E0,-4.885852337E0,6.174302101E-1,5.548077831E0
8.504098191E0,1.977097273E0,8.347314835E0,2.634230137E0,8.973613931E0
8.523235066E0,-4.201011658E0,6.299284363E1,8.099233627E0,6.365017229E1
8.542358608E0,-1.491482925E1,3.866510391E1,9.653320312E0,4.255148629E1
8.561508816E0,-2.219012976E0,8.651490211E0,3.548067570E0,9.610467468E0
8.580645795E0,-4.068565845E0,2.147081757E1,6.431297779E0,2.277961427E1
8.599769337E0,-4.522947788E0,2.339910126E1,4.375884056E0,2.423062850E1
8.618919545E0,-2.047717810E0,1.285348225E1,-2.062204361E0,1.317793007E1
8.638056420E0,-2.900086045E-1,5.837123871E0,-1.532571793E0,6.041928200E0
8.657180066E0,2.930068672E-1,-3.755722046E-1,-3.879184723E-1,6.143193357E-1
8.676330274E0,-4.907479286E-1,-6.185323238E0,3.885685205E-1,6.216915842E0
8.695467149E0,-8.600283265E-1,-1.218087959E1,-8.806943297E-1,1.224292036E1
8.714590691E0,-1.462207317E0,-1.666335297E1,-2.206371784E0,1.687226893E1
8.733741004E0,-1.441710591E0,-1.846641159E1,-3.552191257E0,1.886014181E1
8.752864545E0,2.504259348E-1,-1.601313019E1,-3.703652382E0,1.643776422E1
8.772014754E0,1.984305382E0,-1.171132755E1,-2.008135080E0,1.204679490E1
8.791151629E0,2.704837084E0,-9.159719467E0,2.365417480E-1,9.553667168E0
8.810275274E0,2.849731684E0,-7.471910477E0,1.671705008E0,8.169762204E0
8.829425483E0,2.241737604E0,-6.817576408E0,2.081017256E0,7.472306765E0
8.848549024E0,5.752704144E-1,-7.616222382E0,7.013739347E-1,7.670052465E0
8.867699233E0,-6.589117646E-1,-9.154867172E0,-1.334884405E0,9.275110459E0
8.886836212E0,-1.589032531E0,-1.017596149E1,-2.824977636E0,1.067968704E1
8.905973087E0,-1.623684883E0,-1.097881699E1,-3.514414787E0,1.164138679E1
8.925109962E0,-1.406271011E-1,-1.142851830E1,-3.420534372E0,1.193024986E1
8.944246837E0,1.568602800E0,-1.162517262E1,-4.883241653E-1,1.174068199E1
8.963370483E0,2.294525623E0,-1.192203903E1,3.304324627E0,1.258246493E1
8.982520691E0,1.079663515E0,-9.882605553E0,3.830388784E0,1.065379951E1
9.001657566E0,-8.598335981E-1,-3.228394508E0,3.752344608E0,5.024135247E0
9.020781108E0,3.553838253E0,1.202801228E1,2.181701899E0,1.273038369E1
9.039931420E0,-4.958287716E0,7.212610626E1,1.105936241E1,7.313733191E1
9.059068295E0,-1.272148323E1,3.237783051E1,1.372875214E1,3.739837803E1
9.078191837E0,-1.466250229E1,1.382884026E1,6.197325706E0,2.108631409E1
9.097342149E0,-1.590999508E1,2.585877991E1,8.879615784E0,3.163308423E1
9.116479024E0,-8.836344719E0,1.936305237E1,3.392094135E0,2.155261208E1
9.135602566E0,-2.523302317E0,8.746687889E0,1.039950848E-1,9.103978174E0
9.154752774E0,1.212922692E0,1.987790108E0,-7.192336321E-1,2.437168026E0
9.173889754E0,3.266180992E0,-3.651183128E0,-1.091638803E-1,4.900101352E0
9.193013295E0,2.686510801E0,-8.852466583E0,1.837730885E0,9.431901171E0
9.212163504E0,2.835251331E0,-1.530413246E1,1.023121357E0,1.559813764E1
9.231300483E0,2.912358999E0,-1.967074203E1,-9.907437563E-1,1.990983426E1
9.250437358E0,2.358048201E0,-2.026650620E1,-2.477050543E0,2.055303978E1
9.269574233E0,5.947009325E-1,-1.593168640E1,-1.891022921E0,1.605454043E1
9.288711108E0,1.112724543E0,-1.283344173E1,-1.574888706E0,1.297750581E1
9.307834754E0,1.394689560E0,-8.285168648E0,-4.472526312E-1,8.413632593E0
9.326984962E0,9.649355412E-1,-5.270998478E0,4.179347157E-1,5.374866973E0
9.346121837E0,1.199651241E0,-5.296461582E0,1.500713825E-2,5.430643940E0
9.365258816E0,9.200642109E-1,-6.163154125E0,-5.788893104E-1,6.258282493E0
9.384395691E0,-4.708643258E-1,-7.580044746E0,-1.343632936E0,7.712596258E0
9.403519233E0,-1.212804675E0,-9.667386055E0,-1.757948041E0,9.900486333E0
9.422669441E0,-1.058372498E0,-1.077564812E1,-1.806286097E0,1.097713142E1
9.441806420E0,-7.575191557E-2,-1.102882290E1,-5.239914060E-1,1.104152344E1
9.460943295E0,7.676157355E-1,-1.054539108E1,1.162246823E0,1.063697911E1
9.480066837E0,-3.436476588E-1,-8.792968750E0,2.016373158E0,9.027743564E0
9.499217149E0,-7.218998671E-1,-2.476130962E0,1.278313637E0,2.878619411E0
9.518354024E0,2.102818638E-1,1.162236595E1,3.470051289E0,1.213115265E1
9.537477566E0,-4.553021908E0,5.951005173E1,1.011373711E1,6.053481596E1
9.556627879E0,-9.078927040E0,2.671789169E1,1.445359421E1,3.170455864E1
9.575764754E0,-5.369519234E0,1.093804836E1,8.515849113E0,1.486581060E1
9.594888295E0,-1.065196037E1,2.519969559E1,1.132040787E1,2.960811632E1
9.614038504E0,-8.946081161E0,2.203799629E1,2.906312227E0,2.396147532E1
9.633175483E0,-4.688964367E0,1.065296078E1,6.819891930E-2,1.163944205E1
9.652299024E0,-2.039258957E0,3.484742165E0,1.940155149E0,4.479532012E0
9.671449233E0,2.621650696E-1,-2.907289028E0,1.413848519E0,3.243459211E0
9.690586212E0,5.380859375E-1,-8.098669052E0,7.072058320E-1,8.147276660E0
9.709709754E0,-9.669184685E-2,-1.269145775E1,-5.407354236E-1,1.270333987E1
9.728859962E0,-7.768478990E-1,-1.678731346E1,-1.085801482E0,1.684031920E1
9.747983608E0,2.235732675E-1,-1.726622009E1,-2.242627382E0,1.741268844E1
9.767133816E0,3.222370148E-2,-1.229778099E1,-1.577524781E0,1.239859025E1
9.786270691E0,1.493966579E-1,-1.092291737E1,-1.327300966E-1,1.092474533E1
9.805394233E0,-8.916282654E-2,-9.962180138E0,2.314651728E0,1.022793213E1
9.824544545E0,-1.244267225E0,-9.909673691E0,2.970981836E0,1.042000800E1
9.843681420E0,-2.445445538E0,-9.793391228E0,1.164379835E0,1.016102830E1
9.862818295E0,-2.417139769E0,-9.140649796E0,-5.935889482E-1,9.473457193E0
9.881955274E0,-1.882111669E0,-8.575167656E0,-1.061848044E0,8.843266700E0
9.901092149E0,-1.206475139E0,-8.593040466E0,-7.101056576E-1,8.706329695E0
9.920229024E0,3.064566851E-2,-8.498304367E0,-5.724874735E-1,8.517620453E0
9.939366004E0,1.458775520E0,-8.648685455E0,-6.632974744E-1,8.795893909E0
9.958502879E0,2.071153879E0,-9.323095322E0,-1.736273170E-1,9.551959548E0
9.977626420E0,3.630141258E0,-9.854603767E0,1.654333830E0,1.063146092E1
9.996776733E0,3.333151579E0,-7.593513966E0,1.320337057E0,8.397299789E0
1.001590027E1,1.942044854E0,2.434501648E-1,5.345780849E-1,2.028935664E0
1.003505048E1,2.425181150E0,1.360894489E1,9.756212234E-1,1.385773147E1
1.005418746E1,-6.456980705E0,5.151123047E1,8.712670326E0,5.264038458E1
1.007331100E1,-1.756271744E1,2.585384178E1,1.211462402E1,3.352065474E1
1.009246121E1,-1.172519875E1,1.189991188E1,3.890733719E0,1.715301715E1
1.011159819E1,-6.620650291E0,2.288502693E1,6.007608891E0,2.456926602E1
1.013072173E1,-1.952390432E0,2.070908737E1,3.919088364E0,2.116689353E1
1.014987194E1,-2.694128454E-1,1.165223026E1,-5.492963791E-1,1.166828093E1
1.016900892E1,2.084754556E-1,5.683850288E0,1.011555791E-1,5.688571751E0
1.018813246E1,6.073668599E-2,1.389141083E0,-1.738094985E-1,1.401289276E0
1.020728267E1,2.781922817E-1,-3.318578243E0,-3.628872037E-1,3.349931287E0
1.022641965E1,-2.909417152E-1,-8.506893158E0,-6.608691812E-1,8.537483608E0
1.024554319E1,-1.342729211E0,-1.404659271E1,-8.237349391E-1,1.413464636E1
1.026469340E1,-1.011642218E0,-1.842408943E1,-2.115877628E0,1.857276042E1
1.028383038E1,8.077570796E-1,-1.788885117E1,-2.939123869E0,1.814667784E1
1.030295392E1,2.016458750E0,-1.326020050E1,-1.447480917E0,1.349052350E1
1.032210413E1,1.935875177E0,-9.932682037E0,1.160411477E0,1.018588926E1
1.034124111E1,8.411306143E-1,-7.846018314E0,3.131289959E0,8.489551278E0
1.036036465E1,-1.170137644E0,-7.337847710E0,2.891049862E0,7.973167527E0
1.037951486E1,-2.556337118E0,-7.296108246E0,9.240639806E-1,7.786009841E0
1.039865184E1,-2.009444714E0,-8.287887573E0,-1.531798482E0,8.664488160E0
1.041778871E1,-1.228843927E0,-9.616940498E0,-2.325677156E0,9.970174331E0
1.043692559E1,-2.275786251E-1,-1.024846554E1,-1.660088301E0,1.038454289E1
1.045606257E1,9.430884123E-1,-1.114907169E1,-9.313935041E-2,1.118927568E1
1.047519944E1,5.839999914E-1,-1.201814461E1,1.922220230E0,1.218489993E1
1.049433632E1,-5.428726077E-1,-1.209148884E1,1.775751710E0,1.223323780E1
1.051345996E1,-1.760760188E0,-9.583321571E0,1.014487863E0,9.796403136E0
1.053261017E1,-1.902943611E0,-5.217685699E-1,9.600946903E-1,2.194360645E0
1.055174715E1,4.609257877E-1,2.129506302E1,8.086243629E0,2.278331621E1
1.057087069E1,-9.464256287E0,6.384352875E1,1.312317562E1,6.586187098E1
1.059002090E1,-1.154162645E0,1.864749527E1,1.023903275E1,2.130490467E1
1.060915788E1,-4.672241211E0,1.771189117E1,5.310005188E0,1.907189246E1
1.062828142E1,-8.644518852E0,2.749696922E1,9.040098190E0,3.020818429E1
1.064743163E1,-5.334515572E0,1.691600800E1,2.878185511E0,1.796920518E1
1.066656861E1,-2.038391352E0,8.239130974E0,1.773620129E0,8.670873478E0
1.068569215E1,-1.044178009E-1,2.805074692E0,5.252103806E-1,2.855729862E0
1.070484236E1,1.999352574E-1,-1.929741383E0,1.131784558E0,2.246065938E0
1.072397934E1,7.320250869E-1,-7.725825310E0,5.241913795E-1,7.778111213E0
1.074310288E1,2.290967852E-1,-1.357213020E1,1.474777162E-1,1.357486476E1
1.076225319E1,-1.099174142E0,-1.803055954E1,-5.614628792E-1,1.807275579E1
1.078139007E1,-1.816334963E0,-1.931634903E1,-1.323071599E0,1.944661747E1
1.080052694E1,-1.750418067E0,-1.565074921E1,-1.566021681E0,1.582600196E1
1.081966392E1,-2.258011699E-1,-1.248931694E1,-1.070848584E0,1.253717434E1
1.083878746E1,4.616540074E-1,-9.974786758E0,7.249634862E-1,1.001174647E1
1.085793777E1,1.261384010E0,-8.500803947E0,1.298846245E0,8.691476223E0
1.087707465E1,2.229979992E0,-8.040387154E0,2.154951990E-1,8.346680449E0
1.089621152E1,2.818269253E0,-7.807085514E0,-1.277786016E0,8.397973738E0
1.091534850E1,2.470752716E0,-7.840952396E0,-2.379593849E0,8.558482363E0
1.093448538E1,1.728860974E0,-8.962395668E0,-2.291939974E0,9.410976847E0
1.095360902E1,1.487380981E0,-1.079325008E1,-1.049581528E0,1.094569189E1
1.097275923E1,1.267194152E0,-1.150213051E1,3.169195652E-1,1.157606260E1
1.099189611E1,6.918843389E-1,-1.021901321E1,1.567522645E0,1.036166310E1
1.101103309E1,1.030834198E0,-7.115689278E0,7.262037992E-1,7.226550007E0
1.103016996E1,9.709856510E-1,-9.252729416E-1,3.949947834E0,4.171454308E0
1.104929361E1,2.261861801E0,1.516450882E1,9.227997780E0,1.789509121E1
1.106844382E1,-9.247783661E0,6.346637726E1,1.713820267E1,6.638690033E1
1.108758080E1,-1.904039764E1,3.338927460E1,9.863544464E0,3.968211070E1
1.110670434E1,-1.335141182E1,1.485144424E1,9.991943836E-1,1.999559909E1
1.112585455E1,-7.890664101E0,2.034642982E1,6.961524010E0,2.290638782E1
1.114499152E1,-4.482800007E0,1.371332359E1,5.501397133E0,1.544072894E1
1.116411507E1,-4.026931286E0,7.368013382E0,2.305004120E0,8.707286648E0
1.118326538E1,-1.919728994E0,1.112256050E0,1.830809116E-1,2.226205640E0
1.120240225E1,1.136699200E0,-5.234180927E0,3.991791010E-1,5.371040775E0
1.122152590E1,3.219331264E0,-1.105488682E1,1.269830704E0,1.158391498E1
1.124067611E1,5.177163601E0,-1.751811218E1,9.874573946E-1,1.829377898E1
1.125981298E1,6.548842430E0,-2.132255745E1,-2.086437941E0,2.240294661E1
1.127893663E1,4.241310596E0,-1.839377594E1,-2.239095449E0,1.900876791E1
1.129808684E1,-1.063297033E0,-1.211167145E1,-5.072054863E-1,1.216883081E1
1.131722382E1,-3.055314302E0,-8.652257919E0,8.063611984E-1,9.211228527E0
1.133634736E1,-3.431369305E0,-6.821217060E0,3.233241081E0,8.291992847E0
1.135549767E1,-3.024852037E0,-6.924224854E0,2.728621006E0,8.033678626E0
1.137463455E1,-1.553532720E0,-7.836161613E0,5.901595950E-1,8.010442003E0
1.139377152E1,-2.612301707E-1,-8.573651314E0,-7.699201107E-1,8.612114434E0
1.141290840E1,5.442911983E-1,-9.126195908E0,-1.376964569E0,9.245525192E0
1.143204527E1,9.527097940E-1,-9.369978905E0,-1.324737430E0,9.510998364E0
1.145116892E1,1.692907929E0,-9.046837807E0,-3.496730924E-1,9.210509369E0
1.147031913E1,2.076425076E0,-8.911237717E0,6.603127718E-1,9.173751233E0
1.148944277E1,2.571781397E0,-8.331879616E0,-4.981463552E-1,8.733981181E0
1.150859298E1,3.743995428E0,-3.457026958E0,-1.505380273E-1,5.098156417E0
1.152772996E1,4.418249130E0,2.048228264E0,2.966613293E0,5.702364319E0
1.154685350E1,1.536231279E0,1.909997559E1,1.081848907E1,2.200474448E1
1.156600382E1,-1.763941574E1,5.233374405E1,1.586401939E1,5.745987178E1
1.158514069E1,-1.923567009E1,2.362505722E1,6.894401073E0,3.123599044E1
1.160426423E1,-8.041669846E0,1.455963898E1,2.188869476E0,1.677625377E1
1.162341455E1,-3.128400087E0,1.774280930E1,7.264431477E0,1.942591397E1
1.164255142E1,-3.377874374E0,1.395174313E1,5.905865192E0,1.552225548E1
1.166167507E1,-5.182026863E0,8.311674118E0,2.979629040E0,1.023794502E1
1.168082527E1,-3.746941090E0,1.887928963E0,2.018275976E0,4.655886727E0
1.169996225E1,-5.683330297E-1,-3.998795986E0,9.910387993E-1,4.158789448E0
1.171908580E1,2.039743185E0,-8.635075569E0,-2.874111533E-1,8.877369403E0
1.173823611E1,2.776977062E0,-1.213857841E1,-1.200356841E0,1.250989784E1
1.175737298E1,2.360829592E0,-1.454009438E1,-1.586636901E0,1.481571049E1
1.177650996E1,1.207589388E0,-1.481779289E1,-1.714609385E0,1.496546503E1
1.179564684E1,-1.230636120E0,-1.158909798E1,-4.871959984E-1,1.166443385E1
1.181477048E1,-2.403080702E0,-9.519851685E0,1.032570362E0,9.872617409E0
1.183392069E1,-2.808760643E0,-8.708820343E0,2.034857035E0,9.374077622E0
1.185305757E1,-2.300159454E0,-9.152438164E0,2.346148729E0,9.724313432E0
1.187219455E1,-1.498539209E0,-1.011605072E1,1.603614926E0,1.035140970E1
1.189133142E1,-3.350083232E-1,-1.046378326E1,6.826309562E-1,1.049137626E1
1.191046840E1,6.961478591E-1,-1.039954472E1,4.467483163E-1,1.043238881E1
1.192960527E1,7.870677710E-1,-9.867828369E0,4.688175023E-1,9.910262471E0
1.194874225E1,1.245114088E0,-9.293700218E0,-1.872098446E-1,9.378604393E0
1.196787913E1,2.193904400E0,-9.709369659E0,-3.346481025E-1,9.959772339E0
1.198701611E1,2.322909832E0,-9.609648705E0,-2.119818926E-1,9.888690239E0
1.200615298E1,2.700087309E0,-9.014553070E0,-2.438179255E-1,9.413399264E0
1.202528996E1,4.942345619E-1,-2.692904949E0,-9.406042099E-1,2.894950975E0
1.204441350E1,1.528028250E0,7.925376892E0,-1.942520618E0,8.301798333E0
1.206356382E1,-1.183934093E0,4.238656998E1,1.216146088E1,4.411263022E1
1.208270069E1,-1.490264225E1,3.728759384E1,1.353827858E1,4.237615352E1
1.210182434E1,-9.925325394E0,1.202566814E1,5.146438599E0,1.641994545E1
1.212097455E1,-1.211930943E1,2.379448700E1,5.043465137E0,2.717520585E1
1.214011152E1,-8.031969070E0,2.200043869E1,5.786958694E0,2.412510561E1
1.215923507E1,-4.037528992E0,1.340719128E1,1.317916274E0,1.406383026E1
1.217838538E1,-3.038369179E0,7.486788750E0,8.306431770E-1,8.122417198E0
1.219752225E1,-2.651941776E0,2.683336258E0,2.693564415E0,4.635555837E0
1.221664590E1,-1.633474708E0,-3.242954254E0,3.215078115E0,4.849919505E0
1.223579611E1,-3.553006947E-1,-9.391206741E0,2.322047710E0,9.680542764E0
1.225493309E1,-7.231174409E-2,-1.439879417E1,1.870228171E0,1.451992617E1
1.227405663E1,6.973819733E-1,-1.710318375E1,9.011561871E-1,1.714110027E1
1.229320694E1,1.604560137E0,-1.688881683E1,-4.780900776E-1,1.697160327E1
1.231233048E1,1.187384129E0,-1.361131859E1,-1.288131595E0,1.372359857E1
1.233148080E1,4.386447966E-1,-1.064123631E1,-2.052512407E0,1.084624942E1
1.235061767E1,8.369514346E-2,-8.295029640E0,1.295006871E-1,8.296462622E0
1.236974132E1,5.969703794E-1,-6.844805717E0,1.666945577E0,7.070109370E0
1.238889152E1,1.159536839E0,-7.013504028E0,1.487898111E0,7.262754658E0
1.240801517E1,1.323598862E0,-8.303253174E0,9.445786476E-3,8.408092319E0
1.242716538E1,1.667963624E0,-9.643932343E0,-1.927321196E0,9.975073968E0
1.244630236E1,2.195121288E0,-1.078051758E1,-3.015604496E0,1.140754080E1
1.246543923E1,2.749296188E0,-1.175496674E1,-2.963020086E0,1.243050122E1
1.248457621E1,3.101634741E0,-1.160242271E1,-1.817464948E0,1.214658511E1
1.250371309E1,2.731810808E0,-1.051041794E1,-1.858856678E-1,1.086122594E1
1.252283673E1,1.009216905E0,-8.094221115E0,5.515110493E-1,8.175518250E0
1.254198694E1,1.497913599E-1,-3.410553455E0,1.195044994E0,3.616966251E0
1.256112392E1,1.568519354E0,8.154514313E0,1.499549866E0,8.438305899E0
1.258024746E1,1.964403749E0,5.191049957E1,1.224298096E1,5.337086687E1
1.259939777E1,-7.962523460E0,4.484018707E1,9.051318169E0,4.643242959E1
1.261853465E1,-1.096132278E1,1.760636330E1,2.975536346E0,2.095205103E1
1.263765830E1,-1.726914787E1,2.108342743E1,4.896606922E0,2.768954929E1
1.265680850E1,-1.439251137E1,1.739158821E1,7.671903610E0,2.384260533E1
1.267594548E1,-8.429141998E0,1.046092129E1,2.572377205E0,1.367839294E1
1.269506902E1,-3.041707516E0,3.429512978E0,3.902850151E-1,4.600637594E0
1.271421934E1,1.225386381E0,-2.608627319E0,-4.921793938E-2,2.882521584E0
1.273335621E1,2.970582008E0,-7.505295753E0,-7.119065523E-1,8.103124876E0
1.275247986E1,3.234289408E0,-1.247305870E1,-1.903160334E0,1.302535376E1
1.277163007E1,3.491076469E0,-1.635967445E1,-2.990740299E0,1.699326604E1
1.279076704E1,2.397869110E0,-1.782596207E1,-2.232479334E0,1.812453210E1
1.280990402E1,8.415175080E-1,-1.583459568E1,-1.189817190E0,1.590151682E1
1.282904090E1,7.581048608E-1,-1.242377567E1,2.024744749E-1,1.244853087E1
1.284816455E1,1.121491790E0,-1.044737434E1,1.343259931E0,1.059290903E1
1.286731475E1,6.394793987E-1,-8.236802101E0,1.171784401E-1,8.262419352E0
1.288645173E1,5.602872372E-2,-7.040726185E0,-2.329985857E0,7.416454579E0
1.290558861E1,-1.282874495E-1,-8.013563156E0,-3.492654324E0,8.742556054E0
1.292472559E1,-1.584551036E-1,-9.040808678E0,-3.259954453E0,9.611900572E0
1.294386246E1,-9.654581547E-2,-1.041798592E1,-2.740062714E0,1.077272924E1
1.296299944E1,1.120257378E0,-1.106199646E1,-2.137007236E0,1.132208206E1
1.298213632E1,2.530692577E0,-1.101963902E1,-1.388700247E0,1.139145896E1
1.300125996E1,4.213843822E0,-1.058702469E1,1.194116831E0,1.145720239E1
1.302041017E1,2.666554928E0,-4.732683659E0,5.256328583E-1,5.457572693E0
1.303954715E1,2.190862417E0,4.575826645E0,4.112417698E-1,5.089910354E0
1.305867069E1,9.101379514E-1,3.780294037E1,5.323457718E0,3.818677590E1
1.307782100E1,-1.869335175E1,5.042081070E1,7.312154293E0,5.426939424E1
1.309695798E1,-1.193395519E1,1.448589134E1,8.449859619E-1,1.878761123E1
1.311608152E1,-1.188526058E1,1.709869957E1,1.245055199E0,2.086085110E1
1.313523184E1,-5.071401119E0,2.026848793E1,3.809971094E0,2.123785752E1
1.315436871E1,-4.334838867E0,1.720429230E1,3.714463711E-1,1.774588611E1
1.317349236E1,-3.272037029E0,8.594731331E0,-4.540379047E-1,9.207702395E0
1.319264257E1,-1.978947520E-1,1.356270790E0,-6.716289520E-1,1.526341455E0
1.321177954E1,2.411817312E0,-4.464565754E0,-3.701088428E-1,5.087847352E0
1.323090309E1,4.659080029E0,-9.405690193E0,-4.228198528E-2,1.049646714E1
1.325005340E1,5.784311771E0,-1.384450150E1,-9.987840056E-1,1.503748828E1
1.326919027E1,5.745625019E0,-1.606829453E1,-2.059645414E0,1.718849717E1
1.328832725E1,4.037015438E0,-1.420159721E1,-2.585322857E0,1.498888760E1
1.330746423E1,8.551169634E-1,-1.178297901E1,-8.163335323E-1,1.184213747E1
1.332658777E1,-8.547639847E-1,-1.026272869E1,-4.599905014E-2,1.029836577E1
1.334573809E1,-3.034867525E0,-8.853546143E0,3.535900116E-1,9.365934342E0
1.336487496E1,-4.259697914E0,-8.459542274E0,-1.207038164E-1,9.472246366E0
1.338401194E1,-3.352942944E0,-9.107185364E0,-2.188447952E0,9.948485114E0
1.340314882E1,-1.207333088E0,-9.343264580E0,-3.691023111E0,1.011819637E1
1.342227246E1,7.937577963E-1,-8.776264191E0,-3.721662045E0,9.565753131E0
1.344142267E1,1.881965041E0,-8.164274216E0,-2.827231169E0,8.842533685E0
1.346055965E1,2.738397360E0,-8.034935951E0,-1.861449480E0,8.690455109E0
1.347969663E1,3.114255905E0,-8.793827057E0,-1.115535498E0,9.395445897E0
1.349883350E1,1.724606037E0,-9.209337234E0,-6.628068686E-1,9.392841488E0
1.351797048E1,-1.273937702E0,-8.090641975E0,-4.510508060E0,9.350191859E0
1.353709402E1,-2.115172625E0,-2.419471741E-1,-7.512898445E0,7.808721836E0
1.355624434E1,-1.942804456E0,1.601631165E1,5.802571297E0,1.714545309E1
1.357538121E1,-4.908844233E-1,4.109843445E1,1.164166927E1,4.271827179E1
1.359450486E1,-3.870930672E0,1.786780930E1,1.112834358E1,2.140286766E1
1.361365507E1,-8.058602333E0,1.930065536E1,1.088766670E1,2.357960253E1
1.363279204E1,-1.040160561E1,3.063157845E1,4.999686718E0,3.273352814E1
1.365191569E1,-5.078639984E0,2.237337112E1,1.561698437E0,2.299563484E1
1.367106590E1,-2.497792721E0,1.475382042E1,2.727138281E0,1.521024223E1
1.369020288E1,-4.175981522E0,8.867242813E0,3.459500551E0,1.039398676E1
1.370932642E1,-2.937873125E0,2.154052734E0,1.583836794E0,3.972352033E0
1.372847673E1,4.502919912E-1,-4.570583820E0,-1.616337776E0,4.868834269E0
1.374761361E1,3.266601086E0,-1.013039112E1,-2.516674757E0,1.093751154E1
1.376673725E1,5.786939621E0,-1.456230927E1,-2.540704489E0,1.587465592E1
1.378588746E1,6.319198608E0,-1.721492195E1,-3.064095020E0,1.859232334E1
1.380502444E1,5.825688839E0,-1.752928162E1,-3.247906923E0,1.875535294E1
1.382416142E1,3.348213434E0,-1.302452278E1,-2.062886715E0,1.360530148E1
1.384329830E1,1.101374865E0,-9.651062965E0,-1.701425314E-1,9.715193844E0
1.386242194E1,-1.138592243E0,-8.143501282E0,1.313406348E0,8.326946719E0
1.388157215E1,-3.627634525E0,-6.050752640E0,-2.971044779E-1,7.061133820E0
1.390070913E1,-3.372687340E0,-6.502783775E0,-2.667734861E0,7.796026296E0
1.391983267E1,-4.516098499E-1,-6.789959908E0,-3.074103832E0,7.467102609E0
1.393898298E1,1.596993923E0,-7.100872040E0,-2.649928331E0,7.745637061E0
1.395811996E1,2.912024975E0,-8.160799980E0,-2.540197849E0,9.029460166E0
1.397725684E1,3.593295574E0,-9.508693695E0,-2.554494858E0,1.048105304E1
1.399638048E1,4.090158463E0,-1.132891273E1,-1.837943435E0,1.218407551E1
1.401553069E1,3.391114712E0,-1.201801205E1,5.725376606E-1,1.250040287E1
1.403466767E1,2.973282814E0,-1.199714279E1,-3.048291206E-1,1.236384918E1
1.405379121E1,7.142894864E-1,-7.533755779E0,-3.356337547E0,8.278447158E0
1.407294152E1,7.929241657E-2,1.584064484E0,-6.840318680E0,7.021788036E0
1.409207850E1,-4.747152328E-2,1.829793930E1,3.242690802E0,1.858310738E1
1.411120204E1,-5.986150742E0,5.230100250E1,6.790266037E0,5.307858868E1
1.413035236E1,-7.463738441E0,1.489605618E1,8.082357407E0,1.851821758E1
1.414948923E1,-1.763000727E0,9.847155571E0,3.584067106E0,1.062639080E1
1.416861288E1,-1.400444269E0,2.706909943E1,4.790773392E0,2.752542275E1
1.418776319E1,-1.630574822E0,2.296672821E1,5.286700249E0,2.362368681E1
1.420690007E1,-4.262713194E-1,1.412878323E1,-3.866655827E-1,1.414049974E1
1.422602371E1,-5.411103964E-1,9.766466141E0,8.493883610E-1,9.818254525E0
1.424517392E1,-7.753615379E-1,4.340362549E0,8.633303642E-1,4.492802231E0
1.426431090E1,8.610615730E-1,-2.030960083E0,-8.169949055E-1,2.352383168E0
1.428343454E1,1.608020782E0,-7.841904640E0,-1.649318099E0,8.173215366E0
1.430258475E1,1.988739133E0,-1.300205040E1,-2.336925030E0,1.335925209E1
1.432172173E1,2.320740223E0,-1.650990677E1,-3.577919006E0,1.705181401E1
1.434085861E1,2.719356775E0,-1.763830566E1,-4.803426743E0,1.848181908E1
1.435999559E1,2.849279404E0,-1.428767014E1,-4.634679794E0,1.528843248E1
1.437911923E1,2.648329258E0,-1.079817772E1,-2.010837555E0,1.129857325E1
1.439826944E1,2.414323330E0,-9.231321335E0,1.073614836E0,9.602025804E0
1.441740642E1,9.407190084E-1,-7.669808388E0,2.017536402E0,7.986323691E0
1.443654330E1,-4.010899663E-1,-7.506789684E0,-1.490933895E-1,7.518975553E0
1.445568027E1,-5.858775377E-1,-8.136421204E0,-2.652483940E0,8.577894470E0
1.447481725E1,2.619504929E-2,-8.722612381E0,-3.420608997E0,9.369376652E0
1.449395413E1,-4.783256650E-1,-9.163721085E0,-2.837591171E0,9.604920781E0
1.451309111E1,-1.159436584E0,-9.472919464E0,-1.210667491E0,9.620094186E0
1.453222809E1,-2.550421238E0,-9.630132675E0,-1.119084239E0,1.002479194E1
1.455136496E1,-2.985961676E0,-8.416954994E0,-2.432113409E0,9.256147910E0
1.457050194E1,-2.257385254E0,-3.492408276E0,-1.681142569E0,4.485414594E0
1.458962548E1,-1.621016741E0,6.259213448E0,-6.736826897E-2,6.466064239E0
1.460877580E1,-1.581616759E0,2.524999237E1,9.024986267E0,2.686101270E1
1.462791277E1,-9.002689362E0,4.810534668E1,9.185842514E0,4.979510516E1
1.464703632E1,-8.574367523E0,1.252967548E1,7.318845749E0,1.685461507E1
1.466618663E1,-3.746588707E0,1.551776314E1,2.947747231E0,1.623351821E1
1.468532350E1,-6.635340691E0,2.326723099E1,2.767162561E0,2.435259683E1
1.470444715E1,-2.679672241E0,1.679079056E1,-8.800967932E-1,1.702603481E1
1.472359746E1,-2.062506914E0,9.066360474E0,-7.817848921E-1,9.330809966E0
1.474273434E1,-4.586642981E-1,2.011021614E0,2.541710138E-1,2.078264607E0
1.476185798E1,2.710761547E0,-4.555710793E0,1.156184673E-1,5.302461374E0
1.478100830E1,4.730170250E0,-9.096645355E0,-6.703530550E-1,1.027486450E1
1.480014517E1,5.322362900E0,-1.268469906E1,-2.196295738E0,1.393028542E1
1.481926882E1,5.311285973E0,-1.541798592E1,-4.119806290E0,1.681953781E1
1.483841913E1,3.406463146E0,-1.447761631E1,-3.831458569E0,1.535856243E1
1.485754267E1,-5.059098005E-1,-1.112530899E1,-3.210930586E0,1.159044952E1
1.487667913E1,-2.468109131E0,-9.841263771E0,-1.277152777E0,1.022610163E1
1.489582996E1,-3.079519987E0,-8.536746025E0,1.171181321E0,9.150472214E0
1.491496684E1,-2.723551750E0,-8.222462654E0,6.911790371E-1,8.689324179E0
1.493409048E1,-8.892273307E-1,-8.672546387E0,-1.317941189E0,8.817071796E0
1.495324080E1,1.241607428E0,-8.870926857E0,-2.116295099E0,9.204001155E0
1.497237767E1,2.099603891E0,-8.957078934E0,-1.867940903E0,9.387587696E0
1.499151465E1,3.568981409E0,-9.332520485E0,-1.387244582E0,1.008751775E1
1.501065152E1,5.146926880E0,-9.581833839E0,1.809770823E0,1.102622630E1
1.502978850E1,4.524474144E0,-1.049853802E1,2.569718838E0,1.171723609E1
1.504892548E1,1.032405972E0,-1.125691795E1,-1.176835179E0,1.136525428E1
1.506804902E1,-1.318974614E0,-6.410067558E0,-4.618493557E0,8.009940254E0
1.508719934E1,7.458877563E-2,2.838418961E0,-6.023910046E0,6.659555384E0
1.510633632E1,-1.458226919E0,2.735277939E1,5.684118271E0,2.797517054E1
1.512545986E1,-6.568986416E0,5.560015106E1,7.790673256E0,5.652630335E1
1.514461017E1,-7.457208633E0,1.259586239E1,8.634955406E0,1.699494527E1
1.516374715E1,-9.035206795E0,1.337381554E1,4.775456905E0,1.683148515E1
1.518287080E1,-7.383203506E0,2.241070938E1,4.257015228E0,2.397652535E1
1.520202100E1,-3.191337585E-1,1.641283798E1,-6.535913944E-1,1.642894637E1
1.522115798E1,2.778020620E0,9.471665382E0,-2.672209978E0,1.022597427E1
1.524028163E1,1.475508690E0,6.045315742E0,-1.534080029E0,6.409084947E0
1.525943184E1,-3.657513857E-2,1.825835228E0,-2.148431540E-1,1.838795693E0
1.527856882E1,6.850558519E-1,-4.254420757E0,-1.665157557E0,4.619756183E0
1.529769246E1,1.688536406E0,-9.935288429E0,-3.498790741E0,1.066783240E1
1.531684267E1,1.739975810E0,-1.333363914E1,-5.043221951E0,1.436132084E1
1.533597965E1,1.886053801E0,-1.437494755E1,-6.217648983E0,1.577515372E1
1.535510330E1,1.920508027E0,-1.547038078E1,-2.235472918E0,1.574859904E1
1.537425350E1,7.250525355E-1,-1.403023815E1,1.049327493E0,1.408809327E1
1.539339048E1,-2.415873528E0,-1.027351570E1,2.222784758E-1,1.055608722E1
1.541251413E1,-3.028849125E0,-8.716146469E0,-1.515267253E0,9.350998403E0
1.543166434E1,-9.761753082E-1,-6.094867706E0,-3.579256296E0,7.135222927E0
1.545078798E1,3.739472032E-1,-4.847263813E0,-2.320242167E0,5.386958947E0
1.546993830E1,1.453280568E0,-6.855087757E0,-4.704840183E-1,7.023219189E0
1.548907517E1,9.487349391E-1,-1.024462128E1,4.064602852E-1,1.029648353E1
1.550821215E1,-8.353716731E-1,-1.129328060E1,-4.759572744E-1,1.133413287E1
1.552734913E1,-1.241867185E0,-1.198701286E1,-2.115639925E0,1.223546664E1
1.554648600E1,4.633789659E-1,-1.242766190E1,-6.303050518E-1,1.245226023E1
1.556562298E1,2.241542339E0,-1.257756901E1,1.763782024E0,1.289692526E1
1.558475996E1,2.072620392E0,-6.830865860E0,-5.500848293E-1,7.159544469E0
1.560389694E1,3.102994442E0,3.375844002E0,-3.646893978E0,5.858731340E0
1.562302048E1,4.041346073E0,3.825873184E1,5.196046829E-1,3.847509622E1
1.564217080E1,-9.137373924E0,5.758357239E1,7.213488102E0,5.874856442E1
1.566130777E1,-7.392171860E0,9.524696350E0,8.203737259E0,1.458305011E1
1.568043132E1,-1.184964561E1,9.277010918E0,3.635510921E0,1.548205324E1
1.569958163E1,-9.076427460E0,1.763442230E1,1.957883120E0,1.992956828E1
1.571871861E1,-1.053895473E0,1.373731995E1,-1.365978122E0,1.384523569E1
1.573784215E1,4.735752106E0,7.841835976E0,-1.669125557E0,9.311697998E0
1.575699246E1,5.637293816E0,5.684181213E0,-9.087783098E-1,8.056976830E0
1.577612944E1,3.099279404E0,3.671644211E0,-1.421246529E-1,4.806943254E0
1.579525309E1,1.334189653E0,-5.723800659E-1,-8.376867771E-1,1.676126519E0
1.581440330E1,1.558778524E0,-5.555648327E0,-1.598677874E0,5.987552903E0
1.583354027E1,1.358409047E0,-9.725422859E0,-2.647634029E0,1.017050101E1
1.585266392E1,4.689932764E-1,-1.278050423E1,-3.683547497E0,1.330901067E1
1.587181413E1,-2.169819474E-1,-1.532098961E1,-4.815793991E0,1.606149668E1
1.589095111E1,-7.106025219E-1,-1.582712364E1,-5.613861084E0,1.680827876E1
1.591008809E1,-2.670089006E-1,-1.244472885E1,-3.867701054E0,1.303463392E1
1.592922496E1,5.709453225E-1,-9.541826248E0,-1.573828220E0,9.687588037E0
1.594836194E1,1.027337909E0,-8.799310684E0,-2.756012678E-1,8.863365487E0
1.596749892E1,1.422903538E0,-8.347624779E0,-5.371074677E-1,8.485044393E0
1.598663590E1,1.603108287E0,-8.324913025E0,-1.475853682E0,8.605363278E0
1.600577277E1,1.420410275E0,-8.660576820E0,-1.795069456E0,8.957981389E0
1.602490975E1,1.275006890E0,-9.730087280E0,-1.227920175E0,9.889794184E0
1.604404673E1,9.012197256E-1,-1.070624065E1,9.465653896E-1,1.078572074E1
1.606318361E1,-2.973556519E-3,-1.085320377E1,2.117068052E0,1.105775828E1
1.608232059E1,-1.604175448E0,-9.831778526E0,1.114885092E0,1.002398207E1
1.610145757E1,-1.578293085E0,-3.493041515E0,-2.992393970E-1,3.844722657E0
1.612058121E1,-8.912718296E-2,6.716853142E0,1.173954010E-1,6.718470173E0
1.613973142E1,-3.296597481E0,5.249512482E1,8.244523048E0,5.324075361E1
1.615886840E1,-1.414880180E1,4.170986557E1,7.507777214E0,4.467961724E1
1.617799204E1,-3.083745480E0,6.140683174E0,3.723870277E0,7.815669253E0
1.619714225E1,-6.194379807E0,1.893007851E1,3.935940266E0,2.030295149E1
1.621626590E1,-7.645935535E0,2.684306335E1,5.370707512E0,2.842278803E1
1.623541621E1,-1.578849912E0,1.598797989E1,-7.071549892E-1,1.608130393E1
1.625455319E1,3.398803473E-1,8.729793549E0,-2.973780632E-1,8.741467140E0
1.627367673E1,4.002645314E-1,3.586151123E0,1.472499371E-1,3.611422727E0
1.629282705E1,-1.912896633E-1,-1.764531612E0,-7.187880278E-1,1.914894194E0
1.631196402E1,-4.264900684E-1,-8.471231461E0,-1.540115833E0,8.620650382E0
1.633108767E1,-4.123853445E-1,-1.511747456E1,-2.469772339E0,1.532344198E1
1.635023788E1,8.935737610E-1,-1.864718628E1,-3.924810410E0,1.907669172E1
1.636937486E1,2.573594809E0,-1.830291367E1,-4.173200607E0,1.894823586E1
1.638849850E1,2.664285660E0,-1.401163673E1,-4.503496170E0,1.495679978E1
1.640764871E1,2.448634863E0,-1.040192795E1,-2.703088760E0,1.102282208E1
1.642678569E1,1.579656839E0,-8.506755829E0,1.200104237E0,8.735013488E0
1.644590934E1,3.587178886E-2,-6.676376343E0,3.050713062E0,7.340445357E0
1.646505965E1,-1.686608315E0,-6.418055534E0,1.968650341E0,6.921825526E0
1.648419652E1,-1.565902948E0,-7.508687973E0,-1.513921976E0,7.818209953E0
1.650332017E1,-4.463672042E-1,-8.332285881E0,-2.851404667E0,8.817978241E0
1.652247048E1,-4.666352272E-2,-8.548908234E0,-3.650733471E0,9.295905784E0
1.654160746E1,6.179867983E-1,-9.477154732E0,-3.251531363E0,1.003846730E1
1.656073100E1,7.133581638E-1,-1.074049187E1,-1.040133953E0,1.081429258E1
1.657988132E1,3.137116432E-1,-1.208820724E1,1.078884125E0,1.214031138E1
1.659901830E1,4.707602262E-1,-1.262244129E1,2.280180216E0,1.283537538E1
1.661815527E1,6.264125109E-1,-8.369268417E0,2.336443424E0,8.711831860E0
1.663729215E1,-3.322916329E-1,9.065408707E-1,3.888283253E0,4.006367523E0
1.665641580E1,-1.595419168E0,2.218710327E1,1.189613628E1,2.522560153E1
1.667556611E1,-2.145856857E1,5.783772278E1,7.439309120E0,6.213707156E1
1.669470309E1,-1.085855389E1,1.584741402E1,6.642698288E0,2.032668601E1
1.671382663E1,-6.040981770E0,1.309531498E1,4.930737495E0,1.524115834E1
1.673297694E1,-8.578925133E0,2.184946442E1,9.968165398E0,2.550218369E1
1.675211392E1,-7.691936493E0,1.808565331E1,5.255378723E0,2.034393639E1
1.677123757E1,-5.108622551E0,1.102021122E1,-7.281541824E-2,1.214694948E1
1.679038788E1,-2.013541460E0,5.951879501E0,-4.076154232E-1,6.296456872E0
1.680952475E1,-1.212839127E0,1.853892326E0,-3.260840178E-1,2.239246813E0
1.682864840E1,-9.657251835E-1,-3.108134747E0,-8.120575547E-1,3.354484194E0
1.684779871E1,7.058327198E-1,-8.526664734E0,-1.536536098E0,8.692706971E0
1.686693569E1,1.288530231E0,-1.370518208E1,-1.847097158E0,1.388899182E1
1.688605923E1,1.851457953E0,-1.785560989E1,-2.432035685E0,1.811533877E1
1.690520954E1,2.952170849E0,-1.813199234E1,-4.178371429E0,1.883993755E1
1.692434652E1,2.633041382E0,-1.268134308E1,-3.611739397E0,1.344596708E1
1.694347017E1,2.495301247E0,-9.767119408E0,-1.600641489E0,1.020711531E1
1.696262038E1,2.045037508E0,-7.828108788E0,1.052328944E0,8.158974311E0
1.698175736E1,1.101194382E0,-7.243260384E0,3.099460363E0,7.955130709E0
1.700088100E1,-5.429403782E-1,-8.376619339E0,3.165868998E0,8.971357886E0
1.702003132E1,-1.338701010E0,-9.773293495E0,1.255651832E0,9.944146402E0
1.703915496E1,-1.124988198E0,-1.073027515E1,-9.145270586E-1,1.082777738E1
1.705830517E1,-1.181778073E0,-1.088211155E1,-1.614354610E0,1.106449692E1
1.707744215E1,-1.628741384E0,-1.088657761E1,-9.878973961E-1,1.105198225E1
1.709657913E1,-2.707781553E0,-1.122553349E1,6.607534885E-1,1.156638570E1
1.711570277E1,-4.122724056E0,-9.830015182E0,1.395353675E0,1.075049134E1
1.713485309E1,-4.575715542E0,-6.083607674E0,1.743329048E0,7.809395061E0
1.715398996E1,-3.082572699E0,3.056091309E0,2.644672871E0,5.082936466E0
1.717311361E1,6.671926975E-1,2.675659943E1,1.216006374E1,2.939775347E1
1.719226392E1,-1.035807323E1,4.585470581E1,1.136122513E1,4.836342794E1
1.721140090E1,-5.727747440E0,1.424558067E1,5.664915562E0,1.636566307E1
1.723052454E1,-1.002552223E1,2.136813736E1,6.967803001E0,2.461013346E1
1.724967475E1,-1.347011757E1,2.396546745E1,9.762523651E0,2.917352508E1
1.726881173E1,-1.248137665E1,1.793612671E1,5.040237427E0,2.242528478E1
1.728793538E1,-9.578261375E0,1.198802757E1,3.989140987E0,1.585462525E1
1.730708569E1,-5.191121578E0,6.309455872E0,2.839573145E0,8.649864293E0
1.732622267E1,-1.002431512E0,1.224623680E0,2.105631828E0,2.634057230E0
1.734534621E1,3.413777590E0,-4.318985939E0,1.619906664E0,5.738607372E0
1.736449652E1,4.658443451E0,-9.487813950E0,1.626690388E0,1.069419611E1
1.738363350E1,4.755914211E0,-1.486859703E1,8.283529878E-1,1.563266024E1
1.740275715E1,4.049210548E0,-1.818759346E1,-6.672402024E-1,1.864483498E1
1.742190746E1,1.929885864E0,-1.698398209E1,-9.093581438E-1,1.711744838E1
1.744103100E1,5.931466818E-1,-1.350325012E1,-5.266704559E-1,1.352652833E1
1.746018132E1,-1.555502415E-3,-1.143607712E1,4.610622227E-1,1.144536765E1
1.747931830E1,-9.595813751E-1,-1.010796165E1,2.427007675E0,1.043944690E1
1.749845527E1,-1.560602665E0,-9.366744995E0,2.798328638E0,9.899597752E0
1.751759225E1,-2.094296932E0,-9.065114975E0,1.236329317E0,9.385675220E0
1.753672913E1,-1.894827008E0,-8.700560570E0,-6.788723469E-1,8.930341051E0
1.755586611E1,-2.104284525E0,-7.619966984E0,-1.661220551E0,8.077844014E0
1.757500309E1,-1.378875494E0,-6.869915485E0,-1.902784824E0,7.260690497E0
1.759414007E1,-3.701815903E-1,-8.681315422E0,-1.879619509E-1,8.691237056E0
1.761326371E1,1.254063010E0,-1.045906258E1,2.249039412E0,1.077138999E1
1.763241402E1,1.454130769E0,-1.066797066E1,3.908932924E0,1.145425034E1
1.765153757E1,1.035594463E0,-1.001149559E1,7.962516546E-1,1.009636155E1
1.767068788E1,1.084589213E-1,-4.698913097E0,-1.491518497E0,4.931143383E0
1.768982486E1,7.882617712E-1,5.702865601E0,-4.558376789E0,7.343216709E0
1.770894850E1,-2.357546091E-1,3.058564377E1,9.029543877E0,3.189153254E1
1.772809882E1,-9.621097565E0,4.215639114E1,1.735928726E1,4.659476029E1
1.774723580E1,-1.367291641E1,1.113522720E1,8.989488602E0,1.979274699E1
1.776637277E1,-1.260428143E1,1.060375309E1,4.833610058E0,1.716599185E1
1.778550965E1,-8.555301666E0,1.626708794E1,4.785520554E0,1.899243385E1
1.780464663E1,-3.120602369E0,1.503674507E1,1.990601420E0,1.548561770E1
1.782377027E1,-8.478969336E-1,9.817079544E0,2.442687750E0,1.015188177E1
1.784292059E1,-1.511397839E0,5.907835007E0,3.323360205E0,6.944894596E0
1.786205757E1,-2.087497950E0,2.251177788E0,2.431307793E0,3.916210758E0
1.788118121E1,-9.659100175E-1,-2.280639648E0,7.293720245E-1,2.581914584E0
1.790033142E1,3.818033934E-1,-6.745813847E0,4.087592661E-2,6.756733614E0
1.791946840E1,1.899584770E0,-1.050038910E1,-1.137134671E0,1.073124731E1
1.793859204E1,2.030217648E0,-1.308531570E1,-2.466045380E0,1.346954530E1
1.795774236E1,1.852988720E0,-1.503987503E1,-3.137052059E0,1.547489915E1
1.797687934E1,1.062600970E0,-1.421393967E1,-1.065047860E0,1.429333861E1
1.799600298E1,-6.890904903E-1,-1.060785866E1,1.176178336E0,1.069508796E1
1.801515330E1,-3.414894581E0,-8.369797707E0,8.663946390E-1,9.081060418E0
1.803429017E1,-4.504270077E0,-7.923473358E0,-1.330100536E0,9.210811388E0
1.805342715E1,-3.242757082E0,-8.216764450E0,-9.121671915E-1,8.880469611E0
1.807256413E1,-5.516980290E-1,-8.873183250E0,2.747917175E-1,8.894563632E0
1.809168777E1,1.514706373E0,-9.611427307E0,2.363882065E-1,9.732920921E0
1.811083809E1,2.706222057E0,-1.003830624E1,1.629537940E-1,1.039797018E1
1.812997507E1,2.522825241E0,-1.018436146E1,9.613013268E-2,1.049262153E1
1.814911205E1,7.455481291E-1,-1.141813278E1,1.384362221E0,1.152588639E1
1.816824902E1,-2.232795238E0,-1.176985550E1,7.240267992E-1,1.200162855E1
1.818737257E1,-3.407037497E0,-8.357150078E0,2.234472036E-1,9.027723444E0
1.820652288E1,-2.703904867E0,5.351324081E-1,2.505119324E0,3.724659857E0
1.822565986E1,3.172275424E-2,2.298994446E1,7.893987179E0,2.430748004E1
1.824478350E1,-1.273630047E1,6.584163666E1,1.335865021E1,6.837973386E1
1.826393382E1,-8.866107941E0,2.170749664E1,6.256477356E0,2.426863798E1
1.828307080E1,-1.121765900E1,1.356743431E1,5.153912067E0,1.834322645E1
1.830219444E1,-1.281896210E1,1.738066864E1,1.054637527E1,2.403413121E1
1.832134475E1,-9.827420235E0,1.526489067E1,7.462425232E0,1.962862364E1
1.834048173E1,-4.555130959E0,9.533167839E0,2.810225487E0,1.093288042E1
1.835960527E1,8.509602547E-1,3.397718430E0,1.280020237E0,3.729219179E0
1.837875559E1,6.059678078E0,-2.205190659E0,5.975483656E-1,6.476081245E0
1.839789257E1,7.818967342E0,-7.252416611E0,-2.516770363E-2,1.066463457E1
1.841701621E1,6.639042854E0,-1.270995617E1,-1.728038788E0,1.444319888E1
1.843616652E1,4.147123814E0,-1.766063690E1,-3.378520966E0,1.845294382E1
1.845530350E1,1.042444348E0,-1.943055344E1,-3.225193977E0,1.972396951E1
1.847442715E1,-1.596159816E0,-1.628737259E1,-2.226038933E0,1.651609764E1
1.849357746E1,-1.822503924E0,-1.212630844E1,-6.826026440E-1,1.228148295E1
1.851271444E1,-1.540800452E0,-9.697955132E0,8.906339407E-1,9.859900029E0
1.853183809E1,-1.507336497E0,-7.552964211E0,-1.178609133E-1,7.702806169E0
1.855098840E1,-9.373925924E-1,-6.695842743E0,-1.974458218E0,7.043543154E0
1.857012527E1,-1.196873486E-1,-7.081525326E0,-2.679722309E0,7.572531786E0
1.858926225E1,5.694525242E-1,-7.108734608E0,-2.374447823E0,7.516407810E0
1.860839923E1,1.220121741E0,-8.110363960E0,-1.970180631E0,8.434945901E0
1.862752288E1,2.663109064E0,-9.018544197E0,-1.160740614E0,9.474893566E0
1.864667319E1,4.228019714E0,-9.679193497E0,6.291319132E-1,1.058105592E1
1.866581017E1,3.334358692E0,-1.129677582E1,2.334863663E0,1.200777582E1
1.868493382E1,4.775602818E-1,-9.537577629E0,-1.790702105E0,9.715969580E0
1.870408413E1,4.007869959E-1,-2.832949162E0,-4.334811211E0,5.193921389E0
1.872322111E1,1.276575089E0,1.227629662E1,-2.390766382E0,1.257190783E1
1.874234475E1,-3.309069872E0,5.540208435E1,1.197091675E1,5.677714101E1
1.876149507E1,-1.243736649E1,2.056999969E1,1.805455208E1,3.006293105E1
1.878063204E1,-1.133205700E1,1.053552341E1,-8.716800213E-1,1.549750288E1
1.879975569E1,-1.071078682E1,2.914773941E1,1.916154146E0,3.111243021E1
1.881890600E1,-3.635301828E0,2.328366852E1,2.031758785E0,2.365317490E1
1.883804298E1,9.296625853E-1,1.235286903E1,-2.723455429E-3,1.238780260E1
1.885716663E1,-6.082024574E-1,7.725882530E0,-6.395459175E-1,7.776129505E0
1.887631684E1,-3.359893560E0,3.081493378E0,8.918386698E-1,4.645413048E0
1.889545382E1,-3.319532871E0,-3.459053516E0,1.430779338E0,5.003146932E0
1.891457746E1,-1.623463988E0,-1.090713978E1,1.086893559E0,1.108073423E1
1.893372777E1,8.907686472E-1,-1.710295105E1,-1.300960898E0,1.717547387E1
1.895286475E1,3.733097315E0,-1.960975075E1,-3.392413855E0,2.024813107E1
1.897200173E1,4.042736530E0,-1.812678528E1,-3.766754627E0,1.895026395E1
1.899113871E1,2.715475559E0,-1.383830929E1,-3.904701233E0,1.463281597E1
1.901026236E1,1.491016150E-1,-9.915735245E0,-1.821563244E0,1.008276398E1
1.902941267E1,-2.262795687E0,-7.251128674E0,2.875415087E-1,7.601433515E0
1.904854965E1,-4.191659451E0,-6.071232796E0,5.126208067E-1,7.395448377E0
1.906767330E1,-4.067210674E0,-6.628551483E0,-1.995854020E0,8.028905947E0
1.908682361E1,-1.605878115E0,-7.777543545E0,-3.439647675E0,8.654490409E0
1.910596059E1,4.153870046E-1,-8.470421791E0,-2.834282637E0,8.941686068E0
1.912509757E1,1.461300611E0,-8.756053925E0,-2.123352766E0,9.127568503E0
1.914423454E1,2.561260700E0,-8.925014496E0,-1.992140651E0,9.496555402E0
1.916337152E1,3.225804806E0,-9.400497437E0,-1.343257666E0,1.002893363E1
1.918250850E1,3.056863308E0,-1.011310577E1,-4.360203743E-1,1.057399808E1
1.920164548E1,2.407758474E0,-9.971047401E0,-1.087063193E0,1.031507603E1
1.922078246E1,8.313424587E-1,-4.400724888E0,-2.107798338E0,4.949780162E0
1.923990611E1,-7.905253172E-1,4.152493477E0,-1.512594104E0,4.489551567E0
1.925905642E1,-5.800081730E0,2.752192307E1,8.562042236E0,2.940077830E1
1.927819340E1,-1.618556786E1,4.657538986E1,1.022754574E1,5.035714686E1
1.929731704E1,-8.492590904E0,1.665853119E1,4.199272156E0,1.916415008E1
1.931646736E1,-5.108705521E0,2.375924873E1,4.869947433E0,2.478542234E1
1.933560434E1,-7.382233143E0,2.698917007E1,6.540030479E0,2.873472927E1
1.935472798E1,-5.915035725E0,1.805202293E1,1.307100296E0,1.904131536E1
1.937387830E1,-5.544342041E0,1.134156799E1,1.090312481E0,1.267121441E1
1.939301527E1,-4.123121738E0,5.331675529E0,2.307040930E0,7.123856727E0
1.941213892E1,-1.674269676E0,-1.105625153E0,3.021793365E-1,2.029014115E0
1.943128934E1,7.533532977E-1,-6.775162697E0,-1.501639128E0,6.980350337E0
1.945042632E1,2.207800627E0,-1.153888226E1,-1.252902150E0,1.181481913E1
1.946954996E1,2.973291397E0,-1.599758148E1,-1.756724000E0,1.636609771E1
1.948870027E1,3.444226027E0,-1.904340172E1,-3.453909159E0,1.965816193E1
1.950783725E1,1.915750146E0,-1.747533798E1,-3.758657932E0,1.797734813E1
1.952696090E1,-3.135909438E-1,-1.281120491E1,-1.954757690E0,1.296327074E1
1.954611121E1,-1.089176416E0,-1.005875492E1,6.287239790E-1,1.013706810E1
1.956524819E1,-2.609305143E0,-7.839372635E0,1.416246057E0,8.382719698E0
1.958437184E1,-2.877026081E0,-7.572678566E0,-1.221595883E0,8.192376715E0
1.960352215E1,-1.735378981E0,-7.229620934E0,-3.932635307E0,8.410979700E0
1.962264580E1,1.124875247E-1,-5.793297768E0,-4.058057308E0,7.074092280E0
1.964179611E1,1.410407901E0,-5.813817978E0,-3.198843002E0,6.783975713E0
1.966093309E1,1.876878500E0,-7.324737549E0,-2.541894197E0,7.977197451E0
1.968007007E1,2.956395626E0,-9.849437714E0,-9.009947777E-1,1.032295936E1
1.969919371E1,2.848203182E0,-1.212187672E1,1.635461330E0,1.255893667E1
1.971834402E1,2.410284758E0,-1.325353336E1,1.993889093E0,1.361768016E1
1.973748100E1,7.867964506E-1,-1.201646614E1,-3.353021622E0,1.250029044E1
1.975660475E1,-7.730329037E-2,-4.362893105E0,-3.742969275E0,5.748967823E0
1.977575507E1,5.536907911E-1,7.253135681E0,-4.779554367E0,8.703946843E0
1.979489204E1,-2.747904778E0,4.474838257E1,8.774377823E0,4.568324014E1
1.981401569E1,-1.235386276E1,4.463008118E1,9.495212555E0,4.727177945E1
1.983316600E1,-7.373929024E0,8.935769081E0,2.269549847E0,1.180566198E1
1.985230298E1,-9.005027771E0,1.442182255E1,5.933030128E0,1.800778546E1
1.987142663E1,-7.586183548E0,2.126516724E1,5.516770363E0,2.324203678E1
1.989057694E1,-1.141887307E0,1.336529350E1,4.215836525E-2,1.341405063E1
1.990971402E1,1.957190037E-1,7.601033211E0,-1.468565345E0,7.744074894E0
1.992883767E1,-1.772083521E0,4.462359428E0,5.883302689E-1,4.837257919E0
1.994798798E1,-1.289483547E0,-9.893207550E-1,3.457748890E-1,1.661650881E0
1.996712496E1,1.365888715E0,-6.500877380E0,-2.043358326E0,6.949990787E0
1.998624861E1,2.483588696E0,-9.480461121E0,-3.412564039E0,1.037752134E1
2.000539892E1,1.599492550E0,-1.004633713E1,-4.433485985E0,1.109698446E1
2.002453590E1,2.728653252E-1,-1.073794460E1,-4.142127991E0,1.151239046E1
2.004367288E1,-4.611238539E-1,-1.201250267E1,-2.416082621E0,1.226174175E1
2.006280996E1,-8.068335056E-1,-1.252647686E1,-1.621353507E0,1.265671324E1
2.008194694E1,-1.015644789E0,-1.169895172E1,-7.454972267E-1,1.176659559E1
2.010107059E1,-5.088466406E-1,-1.005488396E1,-4.408136606E-1,1.007739713E1
2.012022090E1,9.153230786E-1,-8.815633774E0,-1.360723019E0,8.966871378E0
2.013935788E1,1.921324253E0,-8.095076561E0,-2.526895285E0,8.695225770E0
2.015849486E1,2.352735996E0,-7.626634598E0,-2.850757837E0,8.475124908E0
2.017763184E1,2.044247150E0,-7.832846642E0,-2.737679005E0,8.545602334E0
2.019676892E1,1.250429869E0,-9.004001617E0,-2.430990458E0,9.409853059E0
2.021590590E1,1.497159004E-1,-1.097282600E1,-1.624261498E0,1.109340123E1
2.023504288E1,-1.639535427E-1,-1.289841557E1,-1.245889664E0,1.295948479E1
2.025417986E1,-8.133485317E-1,-1.316794777E1,-2.064859867E0,1.335365233E1
2.027331684E1,-8.794593811E-2,-6.615260601E0,-1.939996243E0,6.894417505E0
2.029244059E1,2.546797991E-1,3.291387558E0,-1.081987619E0,3.474016561E0
2.031159090E1,2.196183205E-1,3.267079544E1,6.942374706E0,3.340098312E1
2.033072788E1,-9.225427628E0,5.913133621E1,9.073830605E0,6.053063554E1
2.034985152E1,-5.714694500E0,1.627104568E1,6.382889271E0,1.838874483E1
2.036900184E1,-1.270335960E1,1.784086800E1,6.512813091E0,2.284925930E1
2.038812559E1,-1.289367580E1,2.281896973E1,7.430021763E0,2.724256740E1
2.040727590E1,-6.740231991E0,1.627555466E1,2.639876366E0,1.781273011E1
2.042641288E1,-1.329280615E0,1.014480209E1,-6.565594673E-1,1.025256391E1
2.044553652E1,1.866971254E0,4.580966949E0,-2.335245609E-1,4.952309923E0
2.046468684E1,3.623938084E0,-1.457880497E0,-1.303183079E0,4.117842750E0
2.048382392E1,5.379204750E0,-7.423385620E0,-3.046495199E0,9.660415664E0
2.050294757E1,5.514362812E0,-1.257520485E1,-2.600931644E0,1.397529319E1
2.052209788E1,4.774575233E0,-1.647356224E1,-2.763644934E0,1.737275323E1
2.054123486E1,2.796245575E0,-1.794259071E1,-3.803143263E0,1.855315201E1
2.056035850E1,3.071469665E-1,-1.577442455E1,-3.998024464E0,1.627608703E1
2.057949527E1,-3.024144769E-1,-1.226685715E1,-1.985460997E0,1.243017675E1
2.059864590E1,-1.664138436E-1,-8.969284058E0,2.619876862E-1,8.974652507E0
2.061778288E1,-1.873264313E-1,-7.450034142E0,4.001095295E-1,7.463121836E0
2.063691986E1,3.892897367E-1,-7.111273289E0,-2.190539598E0,7.451189034E0
2.065604361E1,1.329550028E0,-6.562271595E0,-5.019965172E0,8.368462349E0
2.067519392E1,2.225595951E0,-6.309826851E0,-5.467209339E0,8.640461225E0
2.069433090E1,2.111075163E0,-7.445059776E0,-4.761579990E0,9.086154160E0
2.071346788E1,2.034811497E0,-9.283186913E0,-3.703804493E0,1.019981298E1
2.073260496E1,2.218704939E0,-1.084218597E1,-2.144220352E0,1.127268066E1
2.075174194E1,1.992439985E0,-1.174645901E1,-1.919324398E-1,1.191578593E1
2.077087892E1,3.373083770E-1,-1.206453323E1,-4.419894218E-1,1.207733802E1
2.079000267E1,-1.610324860E0,-8.334712982E0,-2.325107574E0,8.801517590E0
2.080915298E1,-1.933355570E0,1.500656128E0,-1.397224188E0,2.818167491E0
2.082828996E1,-2.148875237E0,3.281843948E1,2.896030188E0,3.301597531E1
2.084741361E1,-1.505174065E1,6.647721100E1,1.204556465E1,6.921611161E1
2.086656402E1,-5.723367691E0,1.263161945E1,1.520690346E1,2.058068659E1
2.088570100E1,-9.415820122E0,1.114081955E1,4.975343227E0,1.541199432E1
2.090482465E1,-1.363124752E1,2.418072891E1,5.440824032E0,2.828641239E1
2.092397507E1,-8.138236046E0,1.850373650E1,1.476570368E0,2.026818715E1
2.094311205E1,-7.367711067E-1,8.269557953E0,4.381465912E-1,8.313867502E0
2.096223569E1,4.437932491E0,2.077318192E0,-1.962516308E-1,4.903979034E0
2.098138611E1,6.042920589E0,-2.756074905E0,-9.887444973E-1,6.714942577E0
2.100052309E1,5.425446987E0,-7.274115562E0,-1.097648621E0,9.140736552E0
2.101964673E1,4.814836502E0,-1.330487061E1,-1.653826714E0,1.424560898E1
2.103879705E1,4.263401031E0,-1.893709183E1,-3.418343782E0,1.970977193E1
2.105792080E1,4.421178818E0,-1.888769722E1,-3.661804199E0,1.974083935E1
2.107707111E1,1.588227987E0,-1.386405659E1,-1.428116918E0,1.402761744E1
2.109620809E1,5.813701153E-1,-1.176451492E1,-5.121457577E-1,1.178999982E1
2.111533184E1,-1.047967672E0,-9.354618073E0,-1.171527267E0,9.485757306E0
2.113448215E1,-1.714302301E0,-6.955123425E0,-3.704488754E0,8.064478356E0
2.115361913E1,6.761415601E-1,-5.455389500E0,-4.712374687E0,7.240505314E0
2.117275621E1,2.463888407E0,-5.201702118E0,-3.033946037E0,6.506402966E0
2.119189319E1,2.653388977E0,-6.213721275E0,-1.954259396E0,7.033486684E0
2.121103017E1,2.126238823E0,-7.704248428E0,-1.898639441E0,8.214692149E0
2.123016725E1,1.477937937E0,-9.178237915E0,-2.655248880E0,9.668231399E0
2.124930423E1,9.306257963E-1,-1.087898636E1,-2.642450333E0,1.123391972E1
2.126842798E1,1.160585880E-1,-1.260677910E1,-1.130803704E0,1.265792502E1
2.128757830E1,-1.248506308E0,-1.393422699E1,-1.298413396E0,1.405017178E1
2.130670194E1,-1.851866007E0,-9.226482391E0,-1.403046250E0,9.514511223E0
2.132585236E1,-4.388678074E-1,6.910657883E-1,-6.478340626E-1,1.043966402E0
2.134498934E1,2.174851894E0,1.526142311E1,4.942885876E0,1.618867311E1
2.136411309E1,-6.867335796E0,5.356765747E1,1.008233261E1,5.493912685E1
2.138326340E1,-4.988747597E0,1.851624298E1,7.108073711E0,2.045149307E1
2.140240038E1,-7.692961693E0,1.636039352E1,7.147397518E0,1.944040707E1
2.142152413E1,-1.028700924E1,2.960918999E1,8.914224625E0,3.258818945E1
2.144067444E1,-7.816590309E0,2.116097260E1,4.734954357E0,2.305006807E1
2.145981152E1,-3.738120079E0,1.259988689E1,5.542573929E-1,1.315438682E1
2.147893517E1,-1.320267081E0,8.434259415E0,7.140543461E-1,8.566779479E0
2.149808548E1,-1.191545725E-1,4.139635086E0,-1.023983955E-2,4.141362253E0
2.151722257E1,2.247793198E0,-2.129988194E0,-1.997610092E0,3.685087522E0
2.153634621E1,4.979692459E0,-7.654860973E0,-3.132232666E0,9.654279620E0
2.155549663E1,6.775048256E0,-1.213873005E1,-3.484038591E0,1.433138413E1
2.157463361E1,7.175901890E0,-1.560972786E1,-3.697167397E0,1.757345210E1
2.159375725E1,5.435075283E0,-1.691461372E1,-4.919348717E0,1.843486351E1
2.161290767E1,3.048991680E0,-1.467733288E1,-4.772663116E0,1.573209344E1
2.163204465E1,1.648602247E0,-1.082981491E1,-2.423989296E0,1.121955901E1
2.165116840E1,1.312363625E0,-8.182931900E0,-3.516595364E-1,8.294958541E0
2.167031871E1,1.450250983E0,-6.712245941E0,-4.390525818E-2,6.867270285E0
2.168945580E1,1.449999809E0,-6.563878059E0,-1.378012180E0,6.861917530E0
2.170859277E1,1.321656466E0,-7.685204983E0,-2.951179028E0,8.337782025E0
2.172772975E1,9.424774647E-1,-9.212640762E0,-3.481291533E0,9.893452599E0
2.174686684E1,1.017729044E-1,-9.977627754E0,-3.328149319E0,1.051855462E1
2.176600382E1,-5.733578205E-1,-1.014050293E1,-3.223764181E0,1.065604028E1
2.178514090E1,-6.931344271E-1,-1.016241169E1,-2.670715570E0,1.053032613E1
2.180427788E1,-7.143524885E-1,-9.940080643E0,-5.663999319E-1,9.981799013E0
2.182341496E1,-1.191454172E0,-8.248786926E0,-6.732177734E-2,8.334661422E0
2.184253861E1,-2.080344677E0,-1.310175419E0,-1.715640068E0,2.997968386E0
2.186168902E1,-1.547188759E-1,1.101933479E1,-1.549452662E0,1.112881309E1
2.188082600E1,4.142956734E0,4.633760071E1,6.733603477E0,4.700722014E1
2.189994975E1,5.508391857E-1,2.628602600E1,1.096210384E1,2.848554559E1
2.191910007E1,-2.188678026E0,3.987270355E0,1.022095490E1,1.118733906E1
2.193823715E1,-6.325330257E0,2.451291656E1,4.840611458E0,2.577449128E1
2.195736080E1,-8.640947342E0,3.415901947E1,1.886579275E0,3.528546108E1
2.197651121E1,-3.662903309E-1,1.693690681E1,1.063794851E0,1.697423461E1
2.199564819E1,-3.364784718E-1,9.626980782E0,3.590384245E0,1.028021574E1
2.201477194E1,-8.153786659E-1,3.678129196E0,2.731964588E0,4.653719723E0
2.203392225E1,1.683658123E0,-2.646886826E0,-2.564691305E-1,3.147457856E0
2.205305934E1,3.282274723E0,-9.033946037E0,-1.559708834E0,9.737463736E0
2.207218298E1,4.588369370E0,-1.571350765E1,-1.460639477E0,1.643474745E1
2.209133340E1,5.675729752E0,-1.977399826E1,-2.885405302E0,2.077379309E1
2.211045704E1,5.668965816E0,-1.935369110E1,-2.995833397E0,2.038817183E1
2.212960746E1,3.166053534E0,-1.412478638E1,-2.506481171E0,1.469067504E1
2.214874444E1,1.194211006E0,-1.015841293E1,-1.417154670E0,1.032607479E1
2.216786819E1,1.475129128E-1,-7.402709007E0,4.215745926E-1,7.416170565E0
2.218701850E1,-7.647292614E-1,-5.737170219E0,1.539491296E0,5.989154065E0
2.220614225E1,-3.051877022E-1,-6.804397583E0,-6.336352825E-1,6.840647606E0
2.222529257E1,1.539995313E0,-7.862596989E0,-2.504611254E0,8.394348962E0
2.224442965E1,3.204804897E0,-8.409279823E0,-3.304875851E0,9.586916395E0
2.226356673E1,3.912769556E0,-7.873109341E0,-3.977915049E0,9.649840642E0
2.228270371E1,4.965583801E0,-8.602619171E0,-2.807453632E0,1.032200925E1
2.230182746E1,4.876383781E0,-9.846609116E0,-4.180177450E-1,1.099588872E1
2.232097777E1,3.776853561E0,-1.082788563E1,-2.911676168E-1,1.147137780E1
2.234010152E1,2.761704445E0,-1.059268284E1,-1.381069541E0,1.103355311E1
2.235925184E1,2.402120352E0,-5.157451153E0,-8.515775204E-1,5.752796611E0
2.237838892E1,2.262998104E0,4.706703186E0,1.340682507E0,5.391812764E0
2.239751267E1,2.037277460E0,3.976897049E1,1.127812099E1,4.138740782E1
2.241666298E1,-1.627645874E1,4.793228912E1,9.567829132E0,5.151670413E1
2.243580007E1,-1.015857410E1,1.116162300E1,4.424477577E0,1.572750640E1
2.245492371E1,-7.414826870E0,2.117192459E1,5.418516636E0,2.307791955E1
2.247407413E1,-6.221923828E0,2.528563690E1,8.264018059E0,2.731976874E1
2.249321121E1,-2.787254333E0,1.557503033E1,2.584034204E0,1.603208000E1
2.251233486E1,3.733918667E-1,8.941591263E0,-4.167149067E-1,8.959080707E0
2.253148527E1,7.732964754E-1,4.939332008E0,2.947900295E-1,5.008182234E0
2.255062225E1,2.309831142E0,-1.227365494E0,-1.278440952E0,2.911384075E0
2.256974600E1,4.176414013E0,-7.918132782E0,-1.581580877E0,9.090690779E0
2.258889642E1,5.696346283E0,-1.517340660E1,-1.626698375E0,1.628885436E1
2.260803340E1,6.815003395E0,-1.987664032E1,-3.587508678E0,2.131655038E1
2.262717048E1,6.309982300E0,-1.920951462E1,-3.788523912E0,2.057119933E1
2.264630746E1,3.355165005E0,-1.349594307E1,-3.242841721E0,1.427983312E1
2.266543121E1,2.000177145E0,-1.006734371E1,-6.922385693E-1,1.028743468E1
2.268458163E1,1.090519905E0,-7.389931679E0,1.250708461E0,7.573941876E0
2.270371861E1,6.162139177E-1,-6.271130562E0,1.444441080E0,6.464766674E0
2.272285569E1,1.087715387E0,-6.806349754E0,-5.847897530E-1,6.917477922E0
2.274197944E1,1.685381889E0,-7.427834511E0,-2.847938061E0,8.131665809E0
2.276112975E1,2.564100027E0,-7.734190464E0,-3.600283384E0,8.908105945E0
2.278026684E1,2.440012455E0,-8.109800339E0,-2.890470028E0,8.948594264E0
2.279940382E1,1.773006320E0,-9.214962006E0,-1.976178885E0,9.589804959E0
2.281854090E1,1.022226334E0,-1.090870667E1,-7.311663628E-1,1.098086663E1
2.283767798E1,-4.109238386E-1,-1.224611187E1,1.078119397E0,1.230034373E1
2.285680163E1,-6.499531269E-1,-1.175506783E1,-1.748269796E-1,1.177432049E1
2.287595205E1,-5.824942589E-1,-5.479166985E0,-1.004507780E0,5.600857638E0
2.289508913E1,1.090484977E0,3.209185600E0,-4.717516899E-1,3.422072378E0
2.291421277E1,2.036333799E0,3.652113342E1,7.283860207E0,3.729603815E1
2.293336319E1,-7.763671398E0,5.625501633E1,1.120443249E1,5.788299200E1
2.295250027E1,-1.079559803E0,1.120310020E1,8.189563751E0,1.391919028E1
2.297162402E1,-4.714608192E0,1.606899643E1,5.352563858E0,1.758095892E1
2.299077434E1,-8.979104996E0,2.652008820E1,6.095650673E0,2.865477904E1
2.300991142E1,-3.653052092E0,1.793946457E1,-2.068912029E0,1.842415739E1
2.302903517E1,3.568248749E-1,1.030836773E1,1.990318298E-3,1.031454183E1
2.304818548E1,2.406221151E0,3.580498695E0,-5.114483833E-2,4.314219157E0
2.306732257E1,3.623304605E0,-3.167372704E0,-9.829118252E-1,4.911893908E0
2.308644632E1,4.948807716E0,-9.911947250E0,-2.578098774E0,1.137470832E1
2.310559663E1,5.204802513E0,-1.540344429E1,-3.625480652E0,1.665833651E1
2.312473371E1,5.439164162E0,-1.847806358E1,-4.336627007E0,1.974410480E1
2.314387080E1,4.866405010E0,-1.775590324E1,-3.628353596E0,1.876483273E1
2.316300777E1,3.167413712E0,-1.328005791E1,-2.595391750E0,1.389706825E1
2.318213152E1,2.326905251E0,-1.051991272E1,-6.029570103E-2,1.077435322E1
2.320128194E1,1.750638127E0,-8.584353447E0,1.973520398E0,8.980570178E0
2.322041902E1,3.677849770E-1,-7.518853188E0,1.715743184E0,7.720893324E0
2.323955600E1,5.427396297E-1,-6.941674709E0,-6.306172609E-1,6.991358395E0
2.325869309E1,1.781589508E0,-6.740920067E0,-2.339057922E0,7.354267910E0
2.327783017E1,2.270195246E0,-7.132188797E0,-3.370122194E0,8.208509432E0
2.329696725E1,1.763524294E0,-7.945307732E0,-4.371327400E0,9.238313489E0
2.331610423E1,2.277679205E0,-9.214118004E0,-4.058172703E0,1.032262364E1
2.333524132E1,2.125187874E0,-1.082949543E1,-1.922286749E0,1.120221322E1
2.335437840E1,3.256533146E-1,-1.199936581E1,3.559219837E-1,1.200905951E1
2.337350215E1,-1.670144677E0,-1.088134861E1,8.408327103E-1,1.104083921E1
2.339265246E1,-2.582798481E0,-4.258826733E0,2.597100735E0,5.617240013E0
2.341178954E1,-3.022756815E0,6.276218414E0,3.065994740E0,7.611064320E0
2.343091330E1,-5.434725285E0,4.982944489E1,6.059785366E0,5.048990805E1
2.345006371E1,-1.403257275E1,4.753062057E1,1.165327835E1,5.091043004E1
2.346920069E1,-5.600013733E0,1.084378147E1,3.696749449E0,1.275200796E1
2.348832444E1,-8.605251312E0,1.539966774E1,6.636603355E0,1.884793412E1
2.350747486E1,-8.268358231E0,2.090437889E1,8.811833382E0,2.414554228E1
2.352661194E1,-3.253022671E0,1.541449070E1,2.191365004E0,1.590568328E1
2.354573559E1,1.757462025E0,8.237921715E0,-1.333619952E0,8.528221920E0
2.356488600E1,4.581583023E0,3.550145149E0,-4.470922947E-1,5.813288665E0
2.358402309E1,5.472696304E0,-1.619671345E0,-1.524213791E0,5.907365554E0
2.360314684E1,5.271897316E0,-7.305358410E0,-3.318574190E0,9.600734215E0
2.362229715E1,3.584562302E0,-1.280616760E1,-2.955317259E0,1.362280866E1
2.364143423E1,2.494364500E0,-1.701538849E1,-3.700197697E0,1.759081472E1
2.366057132E1,2.634053707E0,-1.831595993E1,-4.629128933E0,1.907462875E1
2.367970840E1,2.360527754E0,-1.403180313E1,-3.296264648E0,1.460578485E1
2.369884548E1,2.360711336E0,-1.053376102E1,-8.982573748E-1,1.083235642E1
2.371796913E1,1.628966093E0,-9.242849350E0,1.220647097E0,9.464342237E0
2.373711955E1,1.586829424E-1,-8.856084824E0,1.866874695E-1,8.859473511E0
2.375625663E1,-4.349106550E-1,-9.050380707E0,-2.052164078E0,9.290312999E0
2.377539371E1,2.673554420E-2,-8.156884193E0,-2.302908421E0,8.475780892E0
2.379453069E1,6.004238129E-1,-7.368881226E0,-2.133007050E0,7.694844920E0
2.381366777E1,7.440865636E-1,-7.290858269E0,-2.556655645E0,7.761879102E0
2.383280486E1,1.891238928E0,-8.166956902E0,-2.472483397E0,8.740088321E0
2.385194194E1,2.433329344E0,-9.337988853E0,-1.755535960E0,9.808212581E0
2.387107902E1,1.385766983E0,-1.032391262E1,-1.384252787E0,1.050807678E1
2.389021600E1,4.382243752E-1,-1.101321793E1,-1.751316309E0,1.116020244E1
2.390935309E1,-1.432816029E0,-7.715089321E0,-2.187289715E0,8.146152546E0
2.392849017E1,-2.436718464E0,5.891609192E-1,3.856778145E-1,2.536425603E0
2.394761392E1,-4.959475040E0,1.434771252E1,8.699794769E0,1.749684761E1
2.396676434E1,-1.140511703E1,5.143054199E1,8.701193810E0,5.339370860E1
2.398590132E1,-1.447919559E1,2.465108109E1,9.904974937E0,3.025609744E1
2.400502507E1,-4.122920990E0,1.549816895E1,6.427893639E-1,1.605007465E1
2.402417548E1,-5.072725296E0,2.346222115E1,5.211151123E0,2.456347815E1
2.404331257E1,-6.515439510E0,2.030961609E1,4.241626263E0,2.174678944E1
2.406243632E1,-5.683751106E0,1.193707085E1,7.577626705E-1,1.324284302E1
2.408158663E1,-3.695991755E0,6.579065323E0,3.901183605E-1,7.556232388E0
2.410072371E1,-5.739418268E-1,1.102075577E0,1.239247322E-1,1.248734214E0
2.411984746E1,3.055698872E0,-4.879547596E0,-7.847909927E-1,5.810609025E0
2.413899788E1,5.488679886E0,-9.638782501E0,-3.459408760E0,1.161891750E1
2.415813496E1,6.334807396E0,-1.196723652E1,-6.146438122E0,1.487021305E1
2.417727205E1,4.885523796E0,-1.272895718E1,-6.073868752E0,1.492603682E1
2.419640902E1,2.770026445E0,-1.262156296E1,-5.341610432E0,1.398247832E1
2.421553277E1,4.610795975E-1,-1.186464214E1,-2.101632833E0,1.205815857E1
2.423468319E1,-3.989591599E-1,-1.141851902E1,1.964385271E0,1.159312531E1
2.425382027E1,-1.985157847E0,-9.892668724E0,1.932019234E0,1.027319057E1
2.427294402E1,-2.107349634E0,-8.475499153E0,-2.017871141E0,8.963638342E0
2.429209434E1,-2.907873392E-1,-7.924740791E0,-4.488908768E0,9.112429742E0
2.431121809E1,1.424009919E0,-7.297680378E0,-3.421091557E0,8.184608151E0
2.433036850E1,2.457313538E0,-7.381951809E0,-2.132951498E0,8.067284824E0
2.434950559E1,2.601595402E0,-7.367440701E0,-8.131382465E-1,7.855486931E0
2.436864267E1,2.544950008E0,-8.220307350E0,-7.713428736E-1,8.639744979E0
2.438777965E1,2.144776583E0,-1.003042603E1,-1.546018362E0,1.037302683E1
2.440690340E1,1.830489159E0,-1.313946342E1,-3.545212746E-2,1.326640292E1
2.442605382E1,1.847874284E0,-1.503455353E1,1.031466007E0,1.518276527E1
2.444517757E1,1.130468369E0,-9.008357048E0,-3.150603771E-1,9.084476786E0
2.446432798E1,2.276853561E0,5.859155655E-1,1.498472691E-1,2.355804193E0
2.448346507E1,1.882934570E0,2.714064407E1,3.973106861E0,2.749446456E1
2.450258871E1,-1.171879578E1,7.233642578E1,9.469434738E0,7.388882773E1
2.452173913E1,-6.923472404E0,1.533922482E1,7.628074646E0,1.847738647E1
2.454086288E1,-3.880584955E0,8.246981621E0,1.619456053E0,9.257120684E0
2.456001330E1,-5.682050705E0,2.361963081E1,6.008511066E0,2.502548432E1
2.457915038E1,-3.421141863E0,2.018972778E1,2.100150824E0,2.058494482E1
2.459827402E1,1.146242619E-1,1.159428787E1,-2.126780987E0,1.178829281E1
2.461742444E1,5.847647190E-1,6.213987350E0,-1.240473628E0,6.363518161E0
2.463656152E1,-8.431138992E-1,1.062932968E0,-7.371858358E-1,1.544056508E0
2.465568527E1,-4.364286661E-1,-5.510582447E0,-1.829986930E0,5.822872234E0
2.467483569E1,9.946393967E-2,-1.164637661E1,-2.602324247E0,1.193398813E1
2.469397277E1,4.507169127E-1,-1.625453186E1,-4.003582478E0,1.674639138E1
2.471309642E1,1.444707394E0,-1.939841652E1,-4.644603729E0,1.999895214E1
2.473224684E1,3.175993919E0,-1.865480423E1,-4.552428246E0,1.946312568E1
2.475138392E1,4.388111591E0,-1.280075073E1,-3.004731178E0,1.386157105E1
2.477050767E1,5.386113167E0,-9.345084190E0,7.257080078E-2,1.078638401E1
2.478965809E1,4.827285767E0,-7.233995438E0,1.948354483E0,8.912320857E0
2.480879507E1,3.001177311E0,-5.777147770E0,1.394715309E0,6.657907509E0
2.482791882E1,6.887226701E-1,-5.327199936E0,-1.156672239E0,5.494660021E0
2.484706923E1,-5.807439089E-1,-5.892548561E0,-3.555675745E0,6.906679523E0
2.486620632E1,-1.645259142E0,-6.782994270E0,-4.033576488E0,8.061366398E0
2.488534340E1,-1.556581974E0,-8.959563255E0,-3.860605001E0,9.879321442E0
2.490448038E1,-4.114264250E-1,-1.107213593E1,-3.408645630E0,1.159225305E1
2.492360413E1,4.182168543E-1,-1.196808338E1,-1.640148282E0,1.208718377E1
2.494275455E1,2.539574146E0,-1.229352188E1,-6.592869759E-1,1.257039285E1
2.496189163E1,3.702201366E0,-1.018092155E1,9.851636887E-1,1.087786772E1
2.498101538E1,2.906580448E0,-4.166051865E0,1.463426352E0,5.286380116E0
2.500016569E1,2.657291174E0,8.224765778E0,4.743852615E0,9.859619978E0
2.501930277E1,-1.189093590E1,6.136097717E1,1.542560387E1,6.437789318E1
2.503842652E1,-2.015124130E1,3.868648148E1,7.830801487E0,4.431746639E1
2.505757694E1,-9.485977173E0,1.327520084E1,8.710818291E-1,1.633932385E1
2.507671402E1,-8.123764992E0,1.972134590E1,7.031044006E0,2.245801909E1
2.509583767E1,-5.931425571E0,2.161140060E1,9.538833618E0,2.435618591E1
2.511498809E1,-3.548222065E0,1.513739967E1,1.974697590E0,1.567259325E1
2.513412517E1,4.201151729E-1,8.294647217E0,-1.945052385E0,8.529999882E0
2.515324892E1,3.530614376E0,2.019030571E0,-3.251169682E0,5.206901825E0
2.517239934E1,3.684309959E0,-3.507965565E0,-3.827179432E0,6.366102786E0
2.519153632E1,3.716893673E0,-9.354058266E0,-3.176026106E0,1.055465994E1
2.521066007E1,3.254672527E0,-1.532229042E1,-2.625157356E0,1.588259828E1
2.522981048E1,2.066115618E0,-1.951651192E1,-3.967157364E0,2.002252254E1
2.524894757E1,1.323328465E-1,-1.991720009E1,-4.348293781E0,2.038676115E1
2.526807132E1,-5.226926506E-2,-1.456953144E1,-4.702053547E0,1.530958151E1
2.528722163E1,1.508197546E0,-1.081327248E1,-1.148011923E0,1.097813522E1
2.530635871E1,2.355666876E0,-7.969449520E0,1.306753397E0,8.412425127E0
2.532549580E1,3.196526766E0,-7.259348869E0,6.945626736E-1,7.962307874E0
2.534463288E1,3.049133778E0,-7.197371483E0,-1.007522583E0,7.881273680E0
2.536376986E1,1.933107495E0,-6.214791298E0,-1.857083321E0,6.768256343E0
2.538290694E1,6.640619040E-1,-6.404067039E0,-1.257278442E0,6.560015392E0
2.540204402E1,-1.715298533E0,-7.613120079E0,-6.356164217E-1,7.829805530E0
2.542116777E1,-4.397874355E0,-9.988143921E0,-7.672765255E-1,1.094043103E1
2.544031819E1,-6.097472668E0,-1.190319538E1,2.285048962E-1,1.337600268E1
2.545945517E1,-5.281972408E0,-1.325062752E1,7.342994213E-1,1.428347149E1
2.547859225E1,-1.140329361E0,-1.275059128E1,-9.044337273E-2,1.280180101E1
2.549772934E1,2.626286745E0,-6.695850372E0,1.408121109E0,7.329024446E0
2.551685309E1,3.279273987E0,1.846431732E0,1.159398079E0,3.937912128E0
2.553600350E1,2.388387680E0,3.020759773E1,8.784875870E0,3.154960222E1
2.555514048E1,-1.668761063E1,6.008193207E1,1.419935989E1,6.395261317E1
2.557426423E1,-1.429064751E1,1.609098816E1,3.354793787E0,2.178065994E1
2.559341465E1,-1.072730064E1,1.710835648E1,1.084018469E0,2.022241174E1
2.561255173E1,-9.053274155E0,2.504713440E1,8.431237221E0,2.793575622E1
2.563167548E1,-5.544087887E0,1.836355972E1,2.446151018E0,1.933755132E1
2.565082580E1,-5.575883865E0,1.087716484E1,3.648257256E-1,1.222850333E1
2.566996288E1,-3.407058477E0,3.988405228E0,5.630321503E-1,5.275644883E0
2.568908663E1,1.096663594E0,-3.384624004E0,2.100086212E-2,3.557919578E0
2.570823704E1,4.932427406E0,-1.018488884E1,-7.245553732E-1,1.133956707E1
2.572737402E1,6.379506588E0,-1.503965855E1,-1.200771213E0,1.638082065E1
2.574649777E1,5.788269043E0,-1.904482651E1,-2.617157936E0,2.007632912E1
2.576564819E1,2.939800262E0,-1.922127533E1,-5.150406837E0,2.011533101E1
2.578478527E1,1.917476058E-1,-1.468180084E1,-4.053784370E0,1.523237378E1
2.580390902E1,-9.492567778E-1,-1.041145515E1,-9.558387995E-1,1.049824341E1
2.582305934E1,-1.523274064E0,-8.095634460E0,1.457405686E0,8.365625651E0
2.584219642E1,-1.233384490E0,-7.068025112E0,1.994848371E0,7.446988405E0
2.586133350E1,-7.939182520E-1,-7.212157249E0,6.587996483E-1,7.285570352E0
2.588047059E1,-4.884068072E-1,-7.922139168E0,-1.518867731E0,8.081199749E0
2.589960788E1,-1.287752390E-1,-7.976893902E0,-3.315873146E0,8.639585297E0
2.591874475E1,1.921696067E-1,-7.845283508E0,-4.339773178E0,8.967666013E0
2.593788173E1,1.540065885E0,-8.458841324E0,-4.041516781E0,9.500403010E0
2.595701882E1,3.520477772E0,-9.733885765E0,-2.469042063E0,1.064135633E1
2.597614257E1,3.797093391E0,-1.125174046E1,3.464510441E-1,1.188021927E1
2.599529298E1,8.383806944E-1,-1.121476173E1,3.242371321E0,1.170413323E1
2.601442996E1,-1.749862313E0,-8.375690460E0,1.410246134E0,8.671966499E0
2.603355371E1,-3.696646690E0,-1.555413723E0,1.373319626E0,4.239164469E0
2.605270413E1,-3.614433289E0,1.969044685E1,2.917075634E0,2.023084663E1
2.607184121E1,-9.541359901E0,7.608155060E1,1.593014240E1,7.831480912E1
2.609096496E1,-9.440230370E0,3.069420242E1,1.602319908E1,3.588864612E1
2.611011538E1,-1.076749134E1,1.111746788E1,4.112319946E-1,1.548244404E1
2.612925236E1,-1.215021801E1,1.538918591E1,6.740130424E0,2.073364895E1
2.614837611E1,-8.463128090E0,1.605985260E1,2.058484793E0,1.826966782E1
2.616752652E1,-3.326437473E0,8.039216995E0,-1.225168705E-1,8.701103754E0
2.618666361E1,3.095979393E-1,1.221841812E0,-5.956299305E-1,1.394103049E0
2.620578736E1,2.071855545E0,-5.482292652E0,7.119616270E-1,5.903812961E0
2.622493777E1,2.168947458E0,-1.206693077E1,1.316431284E0,1.233078029E1
2.624407475E1,2.310272694E0,-1.847026825E1,-1.677685857E0,1.868964416E1
2.626319850E1,2.707152128E0,-2.207090569E1,-3.650240898E0,2.253392574E1
2.628234892E1,3.220775843E0,-2.020909119E1,-3.007094383E0,2.068389181E1
2.630148600E1,2.130945921E0,-1.404858017E1,-4.866888523E-1,1.421760885E1
2.632060975E1,2.830417633E0,-1.117112255E1,1.177153349E0,1.158408102E1
2.633976017E1,2.545128107E0,-8.194346428E0,1.788029432E0,8.764818293E0
2.635889715E1,1.978937268E0,-7.103757858E0,5.797387362E-1,7.397003814E0
2.637803423E1,9.687461853E-1,-7.145504951E0,-1.151821017E0,7.302287439E0
2.639717132E1,-2.457001507E-1,-7.141320229E0,-2.089207888E0,7.444703672E0
2.641630840E1,-1.361208677E0,-6.731087685E0,-2.709440231E0,7.382512909E0
2.643544548E1,-1.762961626E0,-7.871144772E0,-2.550917625E0,8.459913383E0
2.645458257E1,-1.160565257E0,-9.757832527E0,-1.093254328E0,9.887234819E0
2.647371954E1,-2.280896902E-1,-1.042034149E1,5.545426607E-1,1.043757919E1
2.649285663E1,4.792918265E-2,-9.620104790E0,1.384511948E0,9.719340858E0
2.651199371E1,7.755768299E-1,-5.437405586E0,1.039825201E0,5.590003164E0
2.653113080E1,-7.080498934E-1,2.408782005E0,4.103706360E0,4.810818152E0
2.655025454E1,-3.789038897E0,2.622430801E1,1.327064228E1,2.963412042E1
2.656940496E1,-2.085777092E1,6.026924133E1,1.317309380E1,6.512264168E1
2.658854204E1,-1.412170315E1,2.135388184E1,6.075876236E0,2.631210826E1
2.660766580E1,-8.303484917E0,1.749481964E1,2.924164534E0,1.958487463E1
2.662681621E1,-8.216107368E0,2.021325684E1,7.768843651E0,2.316106871E1
2.664595319E1,-6.255800724E0,1.513395596E1,2.716784716E0,1.659977665E1
2.666507694E1,-5.449976444E0,8.689557076E0,1.583999991E0,1.037881021E1
2.668422736E1,-2.517363548E0,6.347227097E-1,2.022723675E0,3.291109724E0
2.670336444E1,3.103915453E-1,-6.639798164E0,2.822721481E0,7.221566252E0
2.672248819E1,3.045419693E0,-1.331225204E1,3.814403415E-1,1.366148353E1
2.674163861E1,4.993619919E0,-1.823361588E1,-3.950164795E0,1.931333192E1
2.676077569E1,5.540219307E0,-2.004998207E1,-5.822526932E0,2.160087107E1
2.677989944E1,3.418569088E0,-1.613074112E1,-4.146271229E0,1.700232304E1
2.679904986E1,3.030635118E-1,-1.139086533E1,6.506912112E-1,1.141345957E1
2.681818684E1,-2.419301510E0,-8.284996033E0,2.776315451E0,9.066537737E0
2.683731059E1,-4.067002773E0,-6.536372185E0,2.948636055E0,8.243732618E0
2.685646100E1,-4.097016335E0,-7.112192154E0,1.116856813E0,8.283488952E0
2.687559809E1,-2.895372629E0,-8.579013824E0,-4.080640674E-1,9.063618325E0
2.689473517E1,-1.619826913E0,-9.883256912E0,-8.931351900E-1,1.005486434E1
2.691387225E1,-1.504022121E0,-1.028797531E1,-1.437852621E0,1.049628214E1
2.693300934E1,-1.926886559E0,-1.051570892E1,-1.696438432E0,1.082455215E1
2.695213309E1,-2.002305746E0,-1.126426601E1,-1.781783998E-1,1.144223163E1
2.697128350E1,-2.209919691E0,-1.201045799E1,5.565661192E-1,1.222475407E1
2.699042059E1,-2.966453552E0,-1.241532040E1,2.220666409E-2,1.276481572E1
2.700955757E1,-2.570014000E0,-1.067166138E1,-1.105352640E0,1.103227687E1
2.702868132E1,-2.025489330E0,-3.590579510E0,1.303769350E-1,4.124544386E0
2.704783173E1,-1.985077858E0,6.841317177E0,2.568202019E0,7.572305886E0
2.706696882E1,4.003710270E0,6.164145660E1,9.989398003E0,6.257385189E1
2.708609257E1,-4.968752861E0,4.200672913E1,1.887190437E1,4.631849060E1
2.710524298E1,-6.486192703E0,7.371638298E0,1.229224968E1,1.573248706E1
2.712438007E1,-1.350830555E1,1.947314072E1,7.842992306E0,2.496377488E1
2.714350382E1,-1.467428017E1,2.528808594E1,4.468300819E0,2.957680681E1
2.716265423E1,-6.317251682E0,1.568851948E1,9.040964842E-1,1.693678549E1
2.718179132E1,-3.945186377E0,7.717622757E0,2.742913008E0,9.091191799E0
2.720091507E1,-1.199681520E0,-4.051370621E-1,1.473510385E0,1.942834178E0
2.722006548E1,2.697420120E0,-7.815935612E0,-1.455433369E0,8.395427987E0
2.723920257E1,4.128183842E0,-1.287462234E1,-4.075328350E0,1.412112260E1
2.725832632E1,3.478329182E0,-1.611704826E1,-3.788073540E0,1.691766886E1
2.727747673E1,1.479320526E0,-1.856223297E1,-1.866016388E0,1.871435009E1
2.729661382E1,-1.089456558E0,-1.775045013E1,-1.685225964E-2,1.778386009E1
2.731573757E1,-2.108799934E0,-1.386566353E1,1.317260861E0,1.408683209E1
2.733488798E1,-1.655375719E0,-1.130091190E1,1.619399071E0,1.153574150E1
2.735402507E1,1.478939652E-1,-1.011153984E1,-6.101669073E-1,1.013101250E1
2.737314882E1,1.932000160E0,-8.344521523E0,-1.831861258E0,8.758959968E0
2.739229923E1,3.077081919E0,-6.075612545E0,-1.658257961E0,7.009373752E0
2.741143632E1,2.866260052E0,-4.450947762E0,-1.520596623E0,5.508048361E0
2.743057330E1,1.481412768E0,-4.896784306E0,-7.809367776E-1,5.175223916E0
2.744969704E1,3.703574538E-1,-7.017274380E0,-5.888587236E-1,7.051670650E0
2.746884746E1,-4.122558236E-1,-1.006088734E1,-5.531967878E-1,1.008451464E1
2.748798455E1,-1.022470951E0,-1.251798820E1,-7.379904985E-1,1.258133958E1
2.750710840E1,-3.674834967E-1,-1.480677605E1,1.670938730E-1,1.481227806E1
2.752625871E1,9.238421917E-1,-1.501296616E1,5.683774948E-1,1.505209919E1
2.754539580E1,7.994271517E-1,-7.971252441E0,2.207979441E0,8.309941183E0
2.756451965E1,4.635289013E-1,1.821344376E0,3.073087454E0,3.602224434E0
2.758367007E1,2.599783182E0,3.859672165E1,1.222327423E1,4.056937549E1
2.760280715E1,-1.782017708E1,6.819834900E1,1.651383209E1,7.239668616E1
2.762193090E1,-1.304309750E1,1.712548828E1,9.025138855E0,2.334219083E1
2.764108132E1,-1.391504574E1,1.350091648E1,4.707937241E0,1.995163945E1
2.766020507E1,-1.478491592E1,1.992213821E1,1.094789886E1,2.711718679E1
2.767935548E1,-1.050847435E1,1.351515293E1,1.300912857E0,1.716915159E1
2.769849257E1,-3.714134693E0,5.686976433E0,-2.156745434E0,7.126573393E0
2.771761632E1,1.787436485E0,-5.381984711E-1,-1.573030114E0,2.441108462E0
2.773676673E1,4.001098633E0,-6.084663868E0,-1.999894142E0,7.551920367E0
2.775590382E1,3.340036154E0,-1.004054165E1,-2.457831144E0,1.086320634E1
2.777502757E1,2.403179407E0,-1.348470020E1,-2.928658962E0,1.400676459E1
2.779417798E1,1.387316585E0,-1.543690205E1,-2.777856350E0,1.574608135E1
2.781331507E1,8.595541716E-1,-1.636309052E1,-1.657524109E0,1.646927293E1
2.783245215E1,5.378025174E-1,-1.456015587E1,-1.297384501E-2,1.457009056E1
2.785158923E1,2.596220374E-1,-1.248694992E1,9.002935886E-1,1.252205456E1
2.787072632E1,3.498511612E-1,-1.149645233E1,9.751475453E-1,1.154303794E1
2.788985007E1,3.781131804E-1,-1.014418888E1,2.294871807E-1,1.015382696E1
2.790900048E1,5.222423673E-1,-8.704875946E0,-1.278269053E0,8.813715113E0
2.792813757E1,4.900174737E-1,-7.600490570E0,-2.511781216E0,8.019764267E0
2.794727465E1,3.948211670E-4,-6.834849358E0,-3.240694046E0,7.564209397E0
2.796641173E1,-3.185012639E-1,-6.861340523E0,-2.388015509E0,7.272004874E0
2.798553548E1,7.706954479E-1,-8.366593361E0,-4.051252604E-1,8.411776413E0
2.800468590E1,2.369893789E0,-1.024364948E1,1.709705710E0,1.065231641E1
2.802382298E1,2.614298820E0,-1.165413570E1,1.978499889E0,1.210652300E1
2.804296007E1,1.669051647E0,-9.847108841E0,4.866361618E-1,9.999405016E0
2.806208392E1,7.791889310E-1,-3.422843456E0,2.795255184E0,4.487364957E0
2.808123434E1,-2.848672867E-1,8.085071564E0,5.673941135E0,9.881454325E0
2.810037142E1,-1.350408936E1,5.350302505E1,1.360864258E1,5.683422624E1
2.811949517E1,-2.535684967E1,4.522143936E1,7.877894878E0,5.244053424E1
2.813864559E1,-9.501855850E0,1.484163475E1,3.160900831E0,1.790392920E1
2.815778267E1,-9.633782387E0,1.621315002E1,9.814025879E0,2.126008233E1
2.817691975E1,-1.141404152E1,1.795957375E1,1.047292233E1,2.371726660E1
2.819605684E1,-9.602057457E0,1.261269474E1,1.435351849E0,1.591665200E1
2.821518059E1,-3.474337339E0,6.105669975E0,-2.956441402E0,7.621730221E0
2.823433100E1,2.111926556E0,5.195751190E-1,-2.744691849E0,3.501931671E0
2.825346809E1,4.189753532E0,-4.503792763E0,-2.016752005E0,6.473443640E0
2.827259184E1,4.426986694E0,-9.607118607E0,-1.825986147E0,1.073448483E1
2.829174225E1,4.180383682E0,-1.469330788E1,-1.896330595E0,1.539366668E1
2.831087944E1,3.488991261E0,-1.910559082E1,-3.046377659E0,1.965902026E1
2.833000319E1,1.686846495E0,-1.837672234E1,-2.456136227E0,1.861671239E1
2.834915361E1,-1.602113247E-1,-1.308671379E1,-9.767144322E-1,1.312408917E1
2.836829069E1,-6.646567583E-1,-9.854344368E0,-1.627206802E-4,9.876733851E0
2.838741444E1,-1.273813963E0,-7.368696213E0,1.038110375E0,7.549699268E0
2.840656486E1,-1.442052007E0,-6.116471291E0,9.706581831E-1,6.358687942E0
2.842570194E1,-1.401205897E0,-6.365160465E0,-5.492834449E-1,6.540669539E0
2.844483902E1,-1.402611136E0,-7.263303280E0,-2.533138752E0,7.819186944E0
2.846397611E1,-1.343605042E0,-8.513963699E0,-3.821821451E0,9.428635722E0
2.848311319E1,-1.233240604E0,-1.043982887E1,-3.839144945E0,1.119151210E1
2.850223694E1,-6.995841265E-1,-1.366991806E1,-1.444729567E0,1.376384108E1
2.852138746E1,-9.261072874E-1,-1.576268673E1,3.824834347E0,1.624651733E1
2.854052454E1,-2.057702303E0,-1.529752922E1,1.671946526E0,1.552558998E1
2.855964830E1,-1.515232801E0,-9.043711662E0,-1.130482674E0,9.239190557E0
2.857879871E1,1.148508549E0,-1.190926552E0,-5.340601206E-1,1.738562093E0
2.859793580E1,3.079384565E0,1.608076859E1,3.522137165E0,1.674751259E1
2.861705954E1,-7.304769993E0,6.026887131E1,1.324078751E1,6.213706597E1
2.863620996E1,-1.105462170E1,2.062082100E1,9.922551155E0,2.541416811E1
2.865534705E1,-1.287243462E1,1.382513142E1,2.673256397E-1,1.889193729E1
2.867447080E1,-1.247662830E1,2.186407852E1,5.741980553E0,2.582004113E1
2.869362132E1,-7.364929199E0,1.753423500E1,6.271862030E0,2.002567933E1
2.871275840E1,-6.538485527E0,1.261723137E1,3.345194340E0,1.459920017E1
2.873188215E1,-4.492649078E0,7.911433220E0,1.732628584E0,9.261569691E0
2.875103257E1,-1.843933821E0,2.766117096E0,-1.592508554E-1,3.328191184E0
2.877016965E1,1.753350496E0,-3.363330841E0,-2.031373739E0,4.302640071E0
2.878929340E1,3.983106375E0,-8.259189606E0,-2.691190243E0,9.556246871E0
2.880844382E1,4.010358810E0,-1.178631020E1,-2.642582417E0,1.272726709E1
2.882758090E1,2.664416552E0,-1.441782284E1,-3.327787399E0,1.503485617E1
2.884670465E1,5.080685616E-1,-1.577424431E1,-3.435627222E0,1.615204172E1
2.886585517E1,-6.166576147E-1,-1.311016273E1,-2.449705124E0,1.335131787E1
2.888497892E1,-1.327322602E0,-1.007326317E1,-3.738226295E-1,1.016721002E1
2.890412934E1,-1.170456290E0,-9.570650101E0,1.368995786E0,9.738658056E0
2.892326642E1,-3.273409605E-1,-9.897786140E0,9.679255486E-1,9.950387050E0
2.894239017E1,6.532889605E-1,-1.030437756E1,-9.697266221E-1,1.037050399E1
2.896154059E1,1.772786498E0,-9.808977127E0,-2.741438150E0,1.033800210E1
2.898067767E1,2.154849768E0,-9.253159523E0,-3.101255417E0,9.994104454E0
2.899981475E1,1.693940878E0,-9.205809593E0,-3.169417143E0,9.882386908E0
2.901895194E1,1.374595165E0,-1.006747246E1,-2.074132681E0,1.037041657E1
2.903808902E1,9.760566950E-1,-1.137339497E1,3.230131865E-1,1.141976958E1
2.905721277E1,-1.139388084E0,-1.193796730E1,5.920710564E-1,1.200682375E1
2.907636319E1,-3.760663271E0,-8.358997345E0,-2.628818989E0,9.535518556E0
2.909550027E1,-2.687305212E0,-7.688608170E-1,-1.255391479E0,3.064109010E0
2.911462402E1,-4.775466919E0,1.847238159E1,9.105150223E0,2.114090174E1
2.913377444E1,-1.396924877E1,6.574193573E1,1.553040695E1,6.898068980E1
2.915291152E1,-1.200747013E1,2.350064468E1,7.821562767E0,2.752519725E1
2.917204871E1,-5.176940441E0,1.369819641E1,7.206497192E-1,1.466153584E1
2.919118580E1,-7.891620636E0,2.225803566E1,6.408485889E0,2.446970615E1
2.921032288E1,-3.531542778E0,1.824127197E1,2.863984823E0,1.879942038E1
2.922944663E1,-1.337634802E0,1.014008141E1,-5.621962547E-1,1.024336773E1
2.924859704E1,-1.619977474E0,4.370882988E0,6.538789272E-1,4.707069445E0
2.926773413E1,-1.440855265E0,-2.128829479E0,3.739348650E-1,2.597653966E0
2.928685788E1,-1.513589501E0,-8.499807358E0,-4.562540054E-1,8.645567998E0
2.930600840E1,-1.060227275E0,-1.472922325E1,-1.716493368E0,1.486675650E1
2.932514548E1,1.046529561E-1,-2.000136185E1,-2.567428350E0,2.016574115E1
2.934426923E1,1.910933018E0,-2.133478165E1,-2.131487846E0,2.152597996E1
2.936341965E1,1.960433245E0,-1.500948811E1,-1.112818003E0,1.517782579E1
2.938255673E1,1.347354650E0,-9.893349648E0,-1.639755964E-1,9.986021220E0
2.940168048E1,3.801237345E-1,-7.774565697E0,2.642395496E-1,7.788336688E0
2.942083090E1,-9.331607223E-1,-6.866043568E0,-9.815954566E-1,6.998347866E0
2.943996798E1,-7.943013310E-1,-8.187906265E0,-2.992463827E0,8.753717117E0
2.945910517E1,6.159429550E-1,-9.186744690E0,-3.639261007E0,9.900499200E0
2.947824225E1,1.803456306E0,-1.009034729E1,-3.844424009E0,1.094747272E1
2.949737934E1,2.014471292E0,-1.015666199E1,-3.691103458E0,1.099273042E1
2.951651642E1,2.143616915E0,-1.003631973E1,-3.471223354E0,1.083384506E1
2.953565350E1,2.793418407E0,-9.914540291E0,-1.682942271E0,1.043712557E1
2.955479059E1,1.005719543E0,-9.547762871E0,-7.186651230E-1,9.627446556E0
2.957391434E1,-1.053515196E0,-7.835485458E0,-1.989268184E0,8.152417712E0
2.959306486E1,-2.795177937E0,-2.205074310E0,-2.998409986E0,4.654657330E0
2.961220194E1,-6.508814335E0,8.563304901E0,4.401476383E0,1.162186944E1
2.963132569E1,-1.019425869E1,4.453882599E1,1.260817719E1,4.739827067E1
2.965047611E1,-1.565863132E1,3.984149933E1,1.026794529E1,4.402236368E1
2.966961319E1,-3.940620899E0,1.335442352E1,2.617244720E-1,1.392614880E1
2.968873694E1,-2.669722557E0,1.742218971E1,3.784459114E0,1.802726390E1
2.970788736E1,-7.866151810E0,2.149787521E1,7.763189316E0,2.417234145E1
2.972702455E1,-7.950106621E0,1.707641983E1,2.298173666E0,1.897603519E1
2.974614830E1,-5.822041035E0,1.001336670E1,7.221281528E-1,1.160539286E1
2.976530791E1,-4.142763138E0,5.121029854E0,1.465723991E0,6.748020450E0
2.978444130E1,-2.216210365E0,-7.258825302E-1,-1.848104000E-1,2.339369299E0
2.980356505E1,-8.480107784E-1,-6.680537224E0,-2.165144920E0,7.073651985E0
2.982271547E1,2.729840875E-1,-1.193906021E1,-2.068201303E0,1.211994784E1
2.984185255E1,1.260929585E0,-1.577701950E1,-2.165478706E0,1.597477968E1
2.986097640E1,1.726088643E0,-1.772840118E1,-2.891755104E0,1.804543815E1
2.988012682E1,1.884595990E0,-1.573269081E1,-3.145916700E0,1.615444379E1
2.989925057E1,1.350031376E0,-1.179018211E1,-2.205491781E0,1.207042555E1
2.991840099E1,1.698644638E0,-9.818923950E0,-4.655615091E-1,9.975640765E0
2.993753807E1,1.358227491E0,-8.296359062E0,-2.368140221E-2,8.406837480E0
2.995667887E1,8.285269737E-1,-8.299298286E0,-1.967674851E0,8.569513015E0
2.997581595E1,6.567661166E-1,-8.574604988E0,-3.930065155E0,9.455189292E0
2.999495304E1,1.305169106E0,-8.008311272E0,-3.952565908E0,9.025480213E0
3.001409022E1,1.386111021E0,-7.204460144E0,-3.103261232E0,7.965913633E0
3.003322731E1,1.153185725E0,-7.332951546E0,-2.870493889E0,7.958753097E0
3.005236439E1,1.961613655E0,-8.842743874E0,-1.786457062E0,9.232197798E0
3.007150148E1,3.040513277E0,-1.038448048E1,1.593070030E0,1.093709412E1
3.009062522E1,2.610976934E0,-1.185978889E1,2.313665152E0,1.236223441E1
3.010977564E1,6.658643484E-1,-1.161749554E1,-1.327520013E0,1.171204027E1
3.012891273E1,-1.031513691E0,-5.603542805E0,-1.783035755E0,5.970169927E0
3.014803658E1,-4.109178066E0,4.531844139E0,-7.706260681E-1,6.165778152E0
3.016718700E1,-1.025154591E1,3.510316849E1,1.054183197E1,3.805859762E1
3.018632408E1,-1.970464325E1,5.345451355E1,1.340710258E1,5.852698851E1
3.020544783E1,-1.485635948E1,1.794354820E1,2.787443638E0,2.346171735E1
3.022459825E1,-8.598052025E0,1.435878372E1,1.201102734E-1,1.673665424E1
3.024373533E1,-7.294762135E0,1.542078495E1,6.198239326E0,1.815027090E1
3.026285908E1,-6.078094482E0,1.208329010E1,2.999512672E0,1.385446529E1
3.028200960E1,-3.947585106E0,7.637084961E0,-2.034144402E-1,8.599411160E0
3.030114668E1,-1.279058933E0,1.938418388E0,-9.206938744E-2,2.324206182E0
3.032027043E1,9.457942247E-1,-2.835961819E0,-1.300142646E0,3.259996480E0
3.033942085E1,3.549313545E0,-6.982792854E0,-3.460793257E0,8.563533888E0
3.035855793E1,5.190744400E0,-1.032455349E1,-4.358979702E0,1.235074638E1
3.037768168E1,5.645644665E0,-1.226855469E1,-4.797034264E0,1.433186225E1
3.039683210E1,4.992191792E0,-1.359746075E1,-4.989058495E0,1.532003989E1
3.041596918E1,3.418353558E0,-1.409467602E1,-4.883964062E0,1.530353352E1
3.043509304E1,1.924095631E0,-1.215470219E1,-3.147665501E0,1.270223316E1
3.045424345E1,1.492276430E0,-1.029166412E1,-2.253644466E-1,1.040173200E1
3.047338054E1,-2.962732315E-1,-8.972115517E0,9.231948853E-1,9.024351692E0
3.049250429E1,-2.070432425E0,-7.791917801E0,-1.162316203E0,8.145652362E0
3.051165470E1,-3.203386307E0,-7.353374958E0,-3.225832462E0,8.645218458E0
3.053079179E1,-3.182192087E0,-6.666885376E0,-3.985023975E0,8.393695442E0
3.054992887E1,-1.894076347E0,-7.120282173E0,-3.367578983E0,8.101020408E0
3.056906595E1,2.737118006E-1,-8.843721390E0,-2.113394976E0,9.096854648E0
3.058820314E1,2.355771542E0,-1.061996269E1,-2.576360703E-1,1.088116002E1
3.060734022E1,3.036286354E0,-1.156446743E1,8.465404510E-1,1.198634942E1
3.062646398E1,1.227032185E0,-9.931439400E0,-2.248438835E0,1.025644060E1
3.064561439E1,1.047022343E0,-2.592471123E0,-3.611205101E0,4.567052068E0
3.066475148E1,1.941003561E0,9.712341309E0,-1.241133928E0,9.981857640E0
3.068387522E1,-3.223379612E0,5.158172607E1,1.144829941E1,5.293513200E1
3.070302564E1,-9.037591934E0,3.544026947E1,8.251203537E0,3.749364117E1
3.072216272E1,-8.839144707E0,1.424845886E1,1.484336853E0,1.683307206E1
3.074128658E1,-1.267100143E1,2.425506401E1,5.673930168E0,2.794737718E1
3.076043700E1,-9.803862572E0,2.093584442E1,7.179437160E0,2.420680939E1
3.077957408E1,-3.882416248E0,1.314466858E1,1.337979078E0,1.377118935E1
3.079869783E1,-3.648705482E-1,7.102716446E0,3.821041584E-1,7.122339153E0
3.081784824E1,2.025496244E0,6.409149170E-1,1.149324179E0,2.415440547E0
3.083698533E1,3.654796124E0,-6.818679810E0,-2.792341709E-1,7.741440484E0
3.085610908E1,3.629077435E0,-1.308134556E1,-3.701642036E0,1.407103260E1
3.087525950E1,2.187930107E0,-1.614234924E1,-4.491561890E0,1.689782842E1
3.089439658E1,7.926151156E-1,-1.649806786E1,-3.318499565E0,1.684716359E1
3.091353377E1,-4.918255806E-1,-1.404471397E1,-2.867750406E0,1.434293817E1
3.093265752E1,-1.092285156E0,-1.033367729E1,-2.479766369E0,1.068303395E1
3.095180793E1,-1.044719458E0,-7.516545296E0,-2.152885914E0,7.888270386E0
3.097094502E1,-5.294346809E-2,-6.319467545E0,-2.275031328E0,6.716713527E0
3.099008210E1,1.476845622E0,-6.175654888E0,-2.527431965E0,6.834303083E0
3.100921918E1,3.203962803E0,-6.719743729E0,-2.805393696E0,7.955536890E0
3.102835627E1,5.027320862E0,-8.308144569E0,-2.862273693E0,1.012382497E1
3.104749335E1,6.115418434E0,-9.680554390E0,-2.219380379E0,1.166349541E1
3.106663043E1,7.000555038E0,-1.021172237E1,-1.238611341E0,1.244271686E1
3.108576752E1,6.993340492E0,-1.069072914E1,1.341571808E-1,1.277562127E1
3.110489137E1,5.325150490E0,-1.234585667E1,6.563179493E-1,1.346135795E1
3.112404179E1,2.024782658E0,-1.248034763E1,-3.230791092E0,1.304978287E1
3.114317887E1,8.022131920E-1,-8.805301666E0,-5.316740036E0,1.031719962E1
3.116230262E1,1.325540304E0,-1.613355160E0,-1.908307195E0,2.828711424E0
3.118145304E1,-9.181540012E-1,1.042936039E1,5.233886242E0,1.170504721E1
3.120059012E1,-8.072736740E0,5.045026398E1,1.011363316E1,5.208343105E1
3.121971387E1,-1.518541431E1,3.029865456E1,5.220479488E0,3.429079588E1
3.123886429E1,-1.859537840E0,7.490039825E0,1.790353298E0,7.922369753E0
3.125800137E1,-1.948560476E0,1.700098228E1,8.974784851E0,1.932296690E1
3.127712512E1,-8.519903183E0,2.141446495E1,1.070615673E1,2.541239562E1
3.129627564E1,-7.752810478E0,1.712385368E1,2.005368710E0,1.890380753E1
3.131541272E1,-5.466644764E0,1.224519634E1,-1.948765039E0,1.355089383E1
3.133453648E1,-3.703085661E0,8.007026672E0,-3.070793152E0,9.341043310E0
3.135368689E1,-1.610167265E0,2.687391281E0,-4.309597015E0,5.327976816E0
3.137282398E1,2.031934261E0,-3.572592735E0,-5.410768032E0,6.794746970E0
3.139194772E1,4.819511414E0,-8.481526375E0,-4.476661682E0,1.073333498E1
3.141109814E1,6.057308674E0,-1.235732269E1,-4.383550644E0,1.444333510E1
3.143023522E1,6.244729996E0,-1.531814384E1,-5.303818703E0,1.737160546E1
3.144937231E1,5.860816479E0,-1.590559864E1,-5.654277802E0,1.786919403E1
3.146849606E1,5.011668682E0,-1.301133919E1,-3.949413776E0,1.449170934E1
3.148764648E1,4.362561703E0,-1.021776962E1,-1.081378341E0,1.116262244E1
3.150678356E1,3.526079655E0,-8.710191727E0,-1.226365566E-1,9.397644246E0
3.152590741E1,1.716995358E0,-7.836163521E0,-1.801097512E0,8.221768912E0
3.154505783E1,8.009153605E-1,-8.094784737E0,-4.383908272E0,9.240435979E0
3.156419491E1,1.652966738E0,-7.701976776E0,-4.640255928E0,9.142467959E0
3.158333200E1,2.181668282E0,-7.539842129E0,-4.026248932E0,8.821540471E0
3.160246908E1,2.595353127E0,-7.776266575E0,-3.882392883E0,9.070785754E0
3.162160616E1,3.760572433E0,-8.808625221E0,-3.190226555E0,1.009511410E1
3.164072991E1,3.961818218E0,-9.931055069E0,-7.682130337E-1,1.071970194E1
3.165988033E1,2.756938219E0,-1.088428497E1,2.661347389E-2,1.122804863E1
