"Time (s)","Linear Acceleration x (m/s^2)","Linear Acceleration y (m/s^2)","Linear Acceleration z (m/s^2)","Absolute acceleration (m/s^2)"
8.367708302E-3,-9.644767041E0,1.893567579E0,1.690599614E0,9.973226986E0
1.837370830E-2,-9.391686684E0,1.480487521E0,2.215285478E0,9.762331270E0
2.838070830E-2,-8.691969098E0,8.567749679E-1,1.201295253E0,8.816320118E0
3.838770831E-2,-5.505910167E0,-4.872262609E-1,3.671642125E-1,5.539607003E0
4.839370830E-2,-1.282179202E0,-2.086247368E0,3.393478382E-1,2.472158681E0
5.840070831E-2,1.663225582E0,-2.752466841E0,1.725287637E0,3.649521952E0
6.840770831E-2,2.501961012E0,-2.016149778E0,3.269848947E0,4.584384470E0
7.841370831E-2,3.041123705E0,-9.013360137E-1,3.743644738E0,4.906701124E0
8.842070831E-2,4.485418423E0,-2.191010177E-1,4.029120424E0,6.033307143E0
9.842770832E-2,5.434285283E0,-4.569604880E-1,3.990360401E0,6.757458513E0
1.084337083E-1,5.037259340E0,-9.981735063E-1,3.490124086E0,6.208969169E0
1.184407083E-1,3.469476105E0,-1.006965380E0,2.397972960E0,4.336071729E0
1.284467083E-1,2.742935295E0,-7.561753768E-1,1.345242593E0,3.147248459E0
1.384537083E-1,2.067091305E0,-4.283196563E-1,2.804546090E-1,2.129549009E0
1.484607083E-1,1.533316676E0,5.683376670E-2,-3.444564774E-1,1.572558543E0
1.584667083E-1,8.602291375E-1,4.571341503E-1,-8.041682996E-1,1.263191377E0
1.684737083E-1,4.018792780E-1,6.850393206E-1,-9.471610813E-1,1.236082497E0
1.784807083E-1,2.590165968E-1,7.349944228E-1,-8.902648956E-1,1.183164394E0
1.884867083E-1,2.580692748E-1,6.540069777E-1,-8.939498109E-1,1.137308728E0
1.984937083E-1,2.189009698E-1,5.565087497E-1,-7.867879627E-1,9.882585296E-1
2.084997083E-1,1.435131839E-1,2.823187745E-1,-5.885281026E-1,6.683301968E-1
2.185067083E-1,-2.121928248E-1,2.203230858E-2,-9.807539199E-1,1.003687934E0
2.285137083E-1,-6.335415767E-1,-3.553545910E-1,-1.994746045E0,2.122890388E0
2.385197083E-1,-8.010809697E-1,-6.532111716E-1,-2.938082024E0,3.114601344E0
2.485267083E-1,-6.607383654E-1,-6.113386756E-1,-2.869492430E0,3.007373766E0
2.585337083E-1,-3.978226990E-1,-1.597476858E-1,-1.840819701E0,1.890079203E0
2.685397083E-1,-5.855752587E-2,4.470360088E-1,-7.373857878E-1,8.642962323E-1
2.785467083E-1,3.873358639E-1,1.006321601E0,-8.635007277E-2,1.081743302E0
2.885537083E-1,9.288612697E-1,1.411327239E0,2.493311226E-1,1.707862361E0
2.985597083E-1,1.510629187E0,1.662100285E0,6.059317553E-1,2.326312789E0
3.085667084E-1,1.994326507E0,1.741880865E0,8.919369069E-1,2.794107838E0
3.185727083E-1,2.336976707E0,1.565242912E0,1.152361659E0,3.039635323E0
3.285797084E-1,2.341768061E0,1.110709019E0,1.115292066E0,2.821600356E0
3.385867083E-1,2.065376902E0,3.090136528E-1,6.167599216E-1,2.177536219E0
3.485927084E-1,1.760010596E0,-6.604377455E-1,-4.293360485E-1,1.928249142E0
3.585997083E-1,1.657805067E0,-1.586313354E0,-1.758410651E0,2.890798456E0
3.686067083E-1,1.842744750E0,-2.356130285E0,-3.081361904E0,4.294397433E0
3.786127083E-1,2.418463065E0,-2.804090154E0,-3.824974538E0,5.323750126E0
3.886197083E-1,3.248680857E0,-2.993116018E0,-3.878507259E0,5.878391733E0
3.986267083E-1,3.903732147E0,-3.037191160E0,-3.892937602E0,6.294332212E0
4.086327083E-1,4.484736053E0,-2.820125558E0,-4.146060060E0,6.727241607E0
4.186397083E-1,5.095238577E0,-2.575927121E0,-4.219857184E0,7.099581068E0
4.286457083E-1,5.857292744E0,-2.559758400E0,-3.964218085E0,7.521653168E0
4.386527083E-1,6.577574403E0,-2.636196127E0,-3.423623994E0,7.869893030E0
4.486597083E-1,7.249099054E0,-2.827067957E0,-2.705060832E0,8.237663773E0
4.586657083E-1,7.980674025E0,-3.295100148E0,-1.949440941E0,8.851506248E0
4.686727083E-1,8.453779260E0,-4.220323207E0,-1.103024169E0,9.512842586E0
4.786797083E-1,8.413152221E0,-5.545570661E0,-5.489167249E-1,1.009137225E1
4.886857083E-1,7.666240588E0,-6.166807503E0,-8.928862023E-1,9.879170274E0
4.986927083E-1,6.100294840E0,-5.736264735E0,-1.935847919E0,8.594523688E0
5.086987083E-1,4.126704314E0,-5.147667051E0,-3.032325692E0,7.261071798E0
5.187057083E-1,2.248435682E0,-4.469468973E0,-3.690632127E0,6.217103941E0
5.287127083E-1,8.743547679E-1,-3.615695965E0,-3.348908565E0,5.005291415E0
5.387187083E-1,-7.148221135E-2,-2.279575614E0,-2.070001611E0,3.080013207E0
5.487257083E-1,-3.031699455E-1,-1.633385194E0,5.829030812E-1,1.760578090E0
5.587327083E-1,-7.708733035E-1,-1.143424190E0,5.407178322E-1,1.481229322E0
5.687387083E-1,-1.273425336E0,-8.140271437E-1,-3.049854694E-1,1.541839296E0
5.787457083E-1,-1.252168076E0,-1.798071438E0,-2.360988736E-2,2.191242390E0
5.887527083E-1,-1.309203864E0,-3.258919916E0,1.550524886E0,3.839101613E0
5.987587083E-1,-1.732818996E0,-4.770791783E0,2.485008180E0,5.651405273E0
6.087657083E-1,-2.206535558E0,-5.898123851E0,2.837706381E0,6.907187679E0
6.187727083E-1,-2.227382636E0,-6.589555932E0,2.349272085E0,7.341836291E0
6.287787083E-1,-1.660962417E0,-6.679000790E0,1.910064475E0,7.142562146E0
6.387857083E-1,-6.880975606E-1,-5.725108833E0,3.394768570E0,6.691397690E0
6.487917083E-1,-8.271754121E-1,-4.386551362E0,4.455386539E0,6.306863025E0
6.587987083E-1,-5.481959825E-1,-3.230760310E0,3.109323581E0,4.517324889E0
6.688057084E-1,-3.051971021E-1,-2.039134598E0,2.617006735E0,3.331657159E0
6.788117083E-1,4.470613711E-1,-9.477342546E-1,3.573447201E0,3.723921184E0
6.888187084E-1,-1.829091648E-1,-1.976540154E-1,4.432678292E0,4.440851237E0
6.988251250E-1,-1.430643224E0,7.940483773E-1,3.609094166E0,3.962677575E0
7.088311250E-1,-2.272096879E0,1.836862451E0,2.605309672E0,3.914604243E0
7.188381250E-1,-2.347329202E0,2.210372062E0,2.765569574E0,4.247831694E0
7.288451250E-1,-2.941331322E0,2.307516534E0,3.533440259E0,5.144051182E0
7.388511250E-1,-3.248760379E0,2.399906634E0,4.060331400E0,5.727153475E0
7.488581250E-1,-3.332003095E0,2.752278560E0,4.371223178E0,6.146940212E0
7.588641250E-1,-3.337176419E0,2.877638186E0,4.226801337E0,6.106013227E0
7.688711250E-1,-3.198504730E0,2.908474647E0,4.157323844E0,5.997749480E0
7.788781250E-1,-2.728124297E0,3.162712753E0,4.328820632E0,6.015322286E0
7.888841250E-1,-2.595138148E0,3.396907774E0,4.794578841E0,6.423527901E0
7.988911250E-1,-2.753385438E0,3.515805057E0,5.223887261E0,6.872482425E0
8.088981250E-1,-2.978694445E0,3.650797386E0,5.213025473E0,7.026846856E0
8.189041250E-1,-3.564824897E0,3.855925312E0,4.755260993E0,7.084394376E0
8.289111250E-1,-4.249696695E0,4.072752348E0,4.430992540E0,7.367559200E0
8.389181250E-1,-4.770072283E0,4.052812173E0,4.042509671E0,7.451225438E0
8.489241250E-1,-5.100038556E0,4.122889883E0,3.518367014E0,7.442279268E0
8.589311250E-1,-4.973735774E0,4.295992609E0,3.394314826E0,7.396957022E0
8.689381250E-1,-4.590766830E0,4.583909508E0,2.918139218E0,7.113571744E0
8.789441250E-1,-4.239989732E0,4.743716251E0,2.363029707E0,6.787066096E0
8.889511250E-1,-4.176290749E0,4.512924310E0,1.668761726E0,6.371236611E0
8.989571250E-1,-4.013201087E0,3.956347733E0,8.075899440E-1,5.693037139E0
9.089641250E-1,-3.533275368E0,3.220263973E0,-2.475091302E-1,4.787002784E0
9.189711250E-1,-2.640678018E0,1.771647286E0,-1.733893861E0,3.621919715E0
9.289771250E-1,-8.313539055E-1,2.512946177E-1,-3.180790590E0,3.297230213E0
9.389841250E-1,9.830132841E-1,-1.253025570E0,-5.295035012E0,5.529356560E0
9.489911250E-1,3.711066976E0,-3.012548069E0,-7.359642420E0,8.775636759E0
9.589971250E-1,6.090124193E0,-4.679715552E0,-8.469454476E0,1.143332889E1
9.690041250E-1,7.094655962E0,-5.683096588E0,-8.200159789E0,1.224231802E1
9.790111250E-1,6.081911779E0,-5.207950675E0,-6.901294388E0,1.057072681E1
9.890171250E-1,4.072767550E0,-3.615842146E0,-5.194452962E0,7.526226911E0
9.990241250E-1,2.562676161E0,-1.902015052E0,-3.531435249E0,4.759832484E0
1.009030125E0,1.484593290E0,-3.883872664E-1,-2.453289374E0,2.893698439E0
1.019037125E0,7.157477278E-1,8.308162540E-1,-2.005492058E0,2.285727204E0
1.029044125E0,-1.750919491E-2,1.747636279E0,-1.789708458E0,2.501518639E0
1.039050125E0,-1.505925248E0,2.196391370E0,-4.824312517E-1,2.706415677E0
1.049057125E0,-3.608987162E0,2.152891009E0,8.711699358E-1,4.291697227E0
1.059064125E0,-5.153084496E0,1.195710577E0,1.468099903E0,5.489929046E0
1.069070125E0,-6.037681686E0,-1.020345563E0,2.019810719E0,6.447816727E0
1.079077125E0,-7.102151508E0,-4.542249266E0,2.785894788E0,8.878839688E0
1.089084125E0,-7.927681879E0,-9.644796277E0,3.235858498E0,1.289732590E1
1.099090125E0,-7.950204184E0,-1.632405318E1,-2.439964739E0,1.832031350E1
1.109097125E0,-5.115734822E0,-2.185754466E1,-1.230521742E1,2.559963627E1
1.119104125E0,-4.302857825E-1,-1.580794986E1,-6.143765380E0,1.696532574E1
1.129110125E0,1.277749352E0,-1.544690534E0,8.825774442E0,9.050580465E0
1.139117125E0,-1.793890971E0,8.455418234E0,1.554242896E1,1.778424135E1
1.149124125E0,-8.036264673E0,1.290881146E1,1.102962160E1,1.878487465E1
1.159130125E0,-1.250732760E1,1.489403005E1,5.317085447E0,2.016275706E1
1.169137125E0,-8.462352448E0,1.402578869E1,5.717980492E0,1.735020053E1
1.179143125E0,-2.895059381E0,7.621646213E0,7.924746577E0,1.136980510E1
1.189150125E0,-3.440766276E-1,1.132061881E0,8.497969007E0,8.579943478E0
1.199157125E0,4.919667448E-1,-3.745562625E0,6.912160853E0,7.877133890E0
1.209163125E0,8.576783627E-1,-8.140678988E0,3.997409220E0,9.109640335E0
1.219170125E0,2.041801367E0,-1.023463766E1,2.039293788E0,1.063369551E1
1.229177125E0,3.942464688E0,-9.152480015E0,1.486695510E0,1.007577202E1
1.239183125E0,3.169925294E0,-6.257458642E0,5.132147956E-1,7.033321011E0
1.249190125E0,-4.561032861E-2,-2.545811037E0,-8.793826425E-1,2.693798057E0
1.259197125E0,-3.413556551E0,5.723757541E-1,-2.216678284E0,4.110187945E0
1.269203125E0,-4.495017797E0,2.875872912E0,-2.017268935E0,5.704840397E0
1.279210125E0,-4.221935576E0,4.146914338E0,-6.451396751E-1,5.952969321E0
1.289217125E0,-3.676981802E0,4.857845714E0,6.478288096E-1,6.126870516E0
1.299223125E0,-2.777994322E0,5.119027389E0,1.440281482E0,5.999675375E0
1.309230125E0,-1.686870553E0,4.363337331E0,1.544415130E0,4.926404675E0
1.319236125E0,-9.760208912E-1,2.696665108E0,2.148170113E0,3.583190522E0
1.329243125E0,-3.477700214E-1,1.104375899E0,2.678823498E0,2.918336076E0
1.339250125E0,9.367800808E-1,-1.370862168E-1,2.258504003E0,2.448916062E0
1.349256125E0,1.748065319E0,-9.613056421E-1,1.436118703E0,2.458104519E0
1.359263125E0,2.553530531E0,-1.001540333E0,1.212859145E0,2.999104619E0
1.369270125E0,2.946694973E0,-5.876691467E-1,7.700933580E-1,3.101839787E0
1.379276125E0,2.606201372E0,-6.798206806E-2,-1.113708933E-1,2.609465583E0
1.389283125E0,2.236456784E0,-1.145750213E-1,-9.543098871E-1,2.434250139E0
1.399290125E0,1.673753786E0,-4.074848574E-1,-1.475875822E0,2.268414664E0
1.409296125E0,1.284649066E0,-3.365481913E-1,-1.066649226E0,1.703328647E0
1.419303125E0,1.208788972E0,-4.472944558E-2,-5.317411137E-1,1.321332703E0
1.429310125E0,1.311407387E0,1.432480127E-1,-4.280794819E-1,1.386925150E0
1.439316125E0,1.567962745E0,6.086542189E-2,-1.020431517E0,1.871761804E0
1.449323125E0,1.838571885E0,-9.770288050E-2,-2.487794378E0,3.094998110E0
1.459330125E0,1.807367780E0,-2.080392551E-1,-4.285049838E0,4.655266988E0
1.469336125E0,1.323271680E0,-1.114613789E-1,-4.993271906E0,5.166840031E0
1.479343125E0,9.292165612E-1,7.904850841E-3,-4.309671001E0,4.408715237E0
1.489350125E0,1.392366181E0,-9.374010551E-1,-2.881447940E0,3.334688373E0
1.499356125E0,2.576736083E0,-2.221222740E0,-1.843012260E0,3.869120507E0
1.509363125E0,3.929509305E0,-2.539827581E0,-1.564457631E0,4.933487124E0
1.519369125E0,4.750106673E0,-2.161623825E0,-1.422746267E0,5.409282568E0
1.529376125E0,4.834041699E0,-1.603866695E0,-1.909943584E0,5.439506597E0
1.539383125E0,3.939520323E0,-8.841288275E-1,-2.666363374E0,4.838491273E0
1.549389125E0,2.769120003E0,-7.576032668E-1,-3.054180830E0,4.191659438E0
1.559396125E0,2.249782588E0,-1.352984306E0,-2.877649296E0,3.895247578E0
1.569403125E0,2.372710065E0,-2.073094057E0,-2.404640248E0,3.963554811E0
1.579409125E0,2.783122915E0,-2.537448349E0,-2.119470078E0,4.321639816E0
1.589416125E0,3.232064824E0,-2.828325108E0,-2.228335294E0,4.838506394E0
1.599423125E0,3.747819358E0,-3.178353471E0,-2.667992116E0,5.591624331E0
1.609429125E0,4.276878646E0,-3.975611969E0,-2.847211615E0,6.496444833E0
1.619436125E0,4.417198373E0,-4.780163115E0,-2.448181977E0,6.953790036E0
1.629443125E0,4.030814363E0,-4.980816752E0,-2.277434363E0,6.800199058E0
1.639449125E0,3.626327080E0,-4.777734767E0,-2.759637866E0,6.602469140E0
1.649456125E0,3.147983325E0,-4.680535916E0,-3.278776768E0,6.524384459E0
1.659463125E0,2.388629402E0,-4.325899948E0,-3.157973585E0,5.864448648E0
1.669469125E0,1.045926474E0,-3.398352036E0,-3.010350101E0,4.658858925E0
1.679476125E0,-5.329731585E-1,-2.467258957E0,-3.036730399E0,3.948817376E0
1.689483125E0,-1.734998400E0,-1.476341845E0,-3.478496312E0,4.158093468E0
1.699489583E0,-2.279820612E0,-7.045701903E-1,-3.499203057E0,4.235377576E0
1.709496583E0,-2.514229056E0,-9.298552233E-1,-1.863839166E0,3.264946388E0
1.719502583E0,-2.906545943E0,-2.220859044E0,1.176414766E0,3.842417977E0
1.729509583E0,-4.063356749E0,-3.426299973E0,3.420407149E0,6.320568379E0
1.739516583E0,-5.324527783E0,-4.199671426E0,4.067216789E0,7.907596892E0
1.749522583E0,-5.960259288E0,-4.551583761E0,3.288206280E0,8.188644946E0
1.759529583E0,-5.724524111E0,-4.531641832E0,1.173614607E0,7.394817458E0
1.769536583E0,-4.932889464E0,-4.299022636E0,-1.071630834E0,6.630489178E0
1.779542583E0,-2.862422562E0,-4.151285716E0,-1.541866329E0,5.272948681E0
1.789549583E0,-6.752652611E-1,-4.529593552E0,-1.329000636E0,4.768589269E0
1.799556583E0,5.262240464E-1,-4.716833677E0,-8.206846373E-1,4.816529347E0
1.809562583E0,1.600927446E0,-4.264571427E0,-6.918293998E-2,4.555691431E0
1.819569583E0,2.159576861E0,-3.106531536E0,2.541853641E0,4.557996307E0
1.829576583E0,1.885444189E0,-1.455557333E0,4.650384456E0,5.224904069E0
1.839582583E0,-1.487198371E-1,5.483086145E-1,4.682068179E0,4.716409902E0
1.849589583E0,-1.212944515E0,2.333099856E0,4.567041753E0,5.269958226E0
1.859596583E0,-1.634463713E0,2.724179766E0,5.006193084E0,5.929131152E0
1.869602583E0,-3.006680681E0,2.953467802E0,4.939925419E0,6.493532469E0
1.879609583E0,-2.914144108E0,3.489495510E0,4.430768299E0,6.348269253E0
1.889615583E0,-2.360836855E0,3.130952432E0,4.230391527E0,5.768242909E0
1.899622583E0,-2.184220829E0,2.789842828E0,3.876181237E0,5.251554495E0
1.909629583E0,-1.856150808E0,2.698742039E0,3.520997092E0,4.808942184E0
1.919635583E0,-1.600720016E0,2.810352522E0,3.374299514E0,4.674000757E0
1.929642583E0,-1.748062834E0,3.081869735E0,3.302081138E0,4.843282418E0
1.939649583E0,-2.271548848E0,3.709719778E0,3.471379374E0,5.565287931E0
1.949655583E0,-2.736940144E0,4.521829035E0,3.865296060E0,6.548151862E0
1.959662583E0,-3.152388325E0,5.361665788E0,4.239179308E0,7.526994977E0
1.969669583E0,-3.676868951E0,5.990146746E0,4.508427509E0,8.350277955E0
1.979675583E0,-3.972349808E0,6.367679241E0,4.524336905E0,8.763362731E0
1.989682583E0,-3.919505011E0,6.379685329E0,4.307429763E0,8.638104861E0
1.999689583E0,-3.474838294E0,5.971560786E0,3.980724190E0,7.973719613E0
2.009695583E0,-2.376534728E0,5.275432806E0,3.361937331E0,6.691840645E0
2.019702583E0,-1.111099320E0,5.012042638E0,2.852164791E0,5.872815092E0
2.029709583E0,-3.003711757E-1,4.914967164E0,2.000871880E0,5.315130605E0
2.039715583E0,5.967697531E-2,4.707498012E0,5.353014833E-1,4.738211324E0
2.049722583E0,-2.089135601E-1,4.408473158E0,-1.542831996E0,4.675319350E0
2.059729583E0,-4.286620107E-1,3.592416446E0,-4.433294881E0,5.722177080E0
2.069735583E0,1.675167350E-1,1.710654395E0,-7.669830194E0,7.860069689E0
2.079742583E0,1.341086977E0,-1.244596809E0,-9.648039143E0,9.819989552E0
2.089749583E0,1.871923526E0,-4.023234617E0,-8.398669252E0,9.498850440E0
2.099755583E0,1.555052092E0,-5.921128551E0,-6.049738644E0,8.606816368E0
2.109762583E0,1.134389804E0,-6.881153653E0,-4.993857797E0,8.577629715E0
2.119768583E0,1.429994037E0,-6.476895289E0,-4.353799353E0,7.934142949E0
2.129775583E0,1.618459737E0,-4.968821774E0,-2.870224794E0,5.962113058E0
2.139782583E0,1.217337382E0,-3.260863531E0,-2.031861539E0,4.030335293E0
2.149788583E0,4.481588204E-1,-1.539613981E0,-1.952436177E0,2.526512332E0
2.159795583E0,-5.152119852E-1,2.866778737E-1,-1.924898423E0,2.013172007E0
2.169802583E0,-1.666808171E0,2.461442147E0,-1.917224829E0,3.537329214E0
2.179808583E0,-3.454561320E0,4.599223951E0,-1.055004934E0,5.848067225E0
2.189815583E0,-5.843907883E0,5.459145890E0,1.241302487E-1,7.998058609E0
2.199822583E0,-7.416656281E0,3.857160244E0,1.040453553E-1,8.360340960E0
2.209828583E0,-7.306480705E0,1.085105816E0,3.660617200E-1,7.395682261E0
2.219835583E0,-7.955244484E0,-2.172202608E0,3.313959172E-1,8.253132873E0
2.229842583E0,-9.246971605E0,-7.580620394E0,-2.715554830E0,1.226158748E1
2.239848583E0,-8.006833883E0,-1.454422505E1,-4.146057721E0,1.711238340E1
2.249855583E0,-4.594210840E0,-1.922072522E1,-3.369837796E0,2.004741524E1
2.259862583E0,1.271127819E0,-1.653766132E1,-1.429516465E0,1.664792855E1
2.269868583E0,5.508761269E0,-6.993028430E0,4.168234748E0,9.829703874E0
2.279875583E0,4.639258082E0,1.362680744E0,1.221513989E1,1.313732305E1
2.289882583E0,1.488710607E0,6.709769424E0,1.363186996E1,1.526647122E1
2.299888583E0,-2.765784459E0,9.247743437E0,1.028753275E1,1.410686543E1
2.309895583E0,-5.113090126E0,1.052318840E1,5.790951405E0,1.305435954E1
2.319902583E0,-4.310486687E0,9.962228751E0,3.517652192E0,1.141052909E1
2.329908583E0,-1.712554594E0,6.549684353E0,5.234152633E0,8.557310451E0
2.339915583E0,9.831863616E-1,2.893548460E0,7.473732122E0,8.074400903E0
2.349922583E0,3.148551382E0,-9.608127218E-1,7.318212558E0,8.024510698E0
2.359928583E0,4.029601358E0,-5.043755597E0,4.612693012E0,7.934361628E0
2.369935583E0,2.832229002E0,-8.009215454E0,2.342078841E0,8.812172638E0
2.379942583E0,2.069225978E0,-7.253335361E0,1.467552896E0,7.684157827E0
2.389948583E0,2.277077976E0,-4.842709612E0,1.322076509E0,5.512241539E0
2.399955583E0,1.152353546E0,-2.524403796E0,6.769952329E-1,2.856371083E0
2.409962583E0,-1.181325111E0,7.907774448E-2,-2.748320726E-1,1.215448467E0
2.419968583E0,-3.485374392E0,2.307407191E0,-1.236154014E0,4.358903457E0
2.429975583E0,-4.466358546E0,3.811345555E0,-1.506211177E0,6.061632265E0
2.439982583E0,-4.462613697E0,4.314944605E0,-1.352443439E0,6.353170170E0
2.449988583E0,-3.769957209E0,3.940116447E0,-8.995619684E-1,5.526871330E0
2.459995583E0,-3.004648481E0,3.288208035E0,-7.396078759E-1,4.515223625E0
2.470001583E0,-1.870560832E0,2.840413057E0,-2.556144675E-1,3.410613276E0
2.480008583E0,-4.933456644E-1,2.356482872E0,5.911347548E-1,2.479080831E0
2.490015583E0,4.766815749E-1,1.609936105E0,1.301437007E0,2.124348811E0
2.500021583E0,1.391893433E0,6.885803944E-1,1.420754120E0,2.104769004E0
2.510028583E0,2.484668749E0,-1.978089666E-1,8.278651643E-1,2.626417315E0
2.520035583E0,3.590938854E0,-1.017330154E0,-1.250976706E-1,3.734360979E0
2.530041583E0,4.088893002E0,-1.447874676E0,-1.033848027E0,4.459173556E0
2.540048583E0,3.818861274E0,-1.381139234E0,-1.506255616E0,4.331287683E0
2.550055583E0,3.210551164E0,-9.578090072E-1,-1.755763617E0,3.782557699E0
2.560061583E0,2.371602310E0,-4.997188371E-1,-2.033852223E0,3.163980293E0
2.570068583E0,1.621156766E0,-1.110585058E-1,-2.291014668E0,2.808777574E0
2.580075583E0,1.270125314E0,1.706159055E-1,-2.362558275E0,2.687751793E0
2.590081583E0,1.116308897E0,3.301390582E-1,-2.576178551E0,2.826983070E0
2.600088583E0,1.422989072E0,2.732924277E-1,-2.932712526E0,3.271144969E0
2.610095583E0,2.303795073E0,-2.069329619E-2,-2.961798915E0,3.752352964E0
2.620101583E0,3.361696718E0,-5.578945398E-1,-2.735289475E0,4.369675006E0
2.630108583E0,3.970501503E0,-9.496609122E-1,-2.440679854E0,4.756433136E0
2.640115583E0,4.020242012E0,-8.274570286E-1,-2.161245511E0,4.638751247E0
2.650121583E0,3.591761557E0,-3.665344673E-1,-1.908332968E0,4.083727870E0
2.660128583E0,2.680324186E0,-1.466639560E-1,-1.668781314E0,3.160771921E0
2.670135583E0,1.804057379E0,-1.827740210E-1,-1.651527350E0,2.452666295E0
2.680141583E0,1.362871948E0,-2.992236596E-1,-2.175867350E0,2.584831420E0
2.690148583E0,1.816188159E0,-6.154615474E-1,-2.547796751E0,3.188824333E0
2.700155625E0,3.003182584E0,-1.115725345E0,-2.127526957E0,3.845818460E0
2.710161625E0,4.153010645E0,-1.675916671E0,-1.552817725E0,4.739982805E0
2.720168625E0,4.728695046E0,-2.052192600E0,-1.348456222E0,5.328262896E0
2.730175625E0,4.431772266E0,-2.193480626E0,-1.707714853E0,5.231467547E0
2.740181625E0,3.746248503E0,-2.661138595E0,-2.260716004E0,5.121217953E0
2.750188625E0,3.173751419E0,-3.441248964E0,-2.371426747E0,5.247719250E0
2.760195625E0,3.218250192E0,-4.068706074E0,-2.552180409E0,5.781446900E0
2.770201625E0,3.964953665E0,-4.262300953E0,-2.773275327E0,6.448187576E0
2.780208625E0,5.092182237E0,-4.073214278E0,-2.777765404E0,7.087832893E0
2.790215625E0,5.875338421E0,-3.587565596E0,-2.522260206E0,7.331577253E0
2.800221625E0,6.089537718E0,-3.114669106E0,-1.830353916E0,7.080524607E0
2.810228625E0,5.554984678E0,-2.757980180E0,-1.252307532E0,6.327130756E0
2.820235625E0,4.245727897E0,-2.011746240E0,-2.049471890E0,5.125784168E0
2.830241625E0,2.661542053E0,-1.594292464E0,-3.088385872E0,4.377636560E0
2.840248625E0,1.162586905E0,-1.340950736E0,-1.547692494E0,2.354805564E0
2.850254625E0,-7.529058331E-1,-1.423135691E0,8.020356739E-1,1.798733891E0
2.860261625E0,-2.835567470E0,-2.617259919E0,1.853403640E0,4.280840736E0
2.870268625E0,-4.417851215E0,-4.208030021E0,3.114056318E0,6.849983413E0
2.880274625E0,-5.419294192E0,-5.609410561E0,3.884883063E0,8.713584383E0
2.890281625E0,-5.199913677E0,-6.562700256E0,4.109227864E0,9.327051545E0
2.900288625E0,-4.839776356E0,-6.883748648E0,3.173292121E0,8.993287135E0
2.910294625E0,-4.586358030E0,-7.160963387E0,9.410006011E-1,8.555674067E0
2.920301625E0,-3.875084299E0,-7.022628205E0,-5.094722852E-1,8.036986204E0
2.930308625E0,-5.941741010E-1,-6.428704292E0,2.105232985E-1,6.459535726E0
2.940314625E0,2.044648522E0,-5.374731392E0,1.553495564E0,5.956649526E0
2.950321625E0,3.726583148E0,-4.463597783E0,2.328045523E0,6.263459355E0
2.960328625E0,4.451552519E0,-3.759155062E0,2.418570654E0,6.308490360E0
2.970334625E0,3.225088511E0,-1.812719298E0,3.668392242E0,5.210014280E0
2.980341625E0,9.933027756E-1,3.004749638E-1,4.385022022E0,4.506146219E0
2.990348625E0,-7.419710281E-1,1.689443620E0,4.452034622E0,4.819268931E0
3.000354625E0,-1.121784376E0,2.594637626E0,4.638523964E0,5.431983907E0
3.010361625E0,-1.533534046E0,3.029064115E0,5.440196818E0,6.412698145E0
3.020368625E0,-2.660756772E0,2.858445286E0,6.113797815E0,7.254575093E0
3.030374625E0,-3.428359070E0,2.938579622E0,6.479148806E0,7.897358125E0
3.040381625E0,-3.327566813E0,3.336363364E0,6.719809093E0,8.207305016E0
3.050388625E0,-3.005232910E0,3.558862783E0,6.701511401E0,8.161322455E0
3.060394625E0,-2.703078334E0,3.730448157E0,6.299155721E0,7.803988642E0
3.070401625E0,-2.615553702E0,3.979675199E0,5.685633695E0,7.416560279E0
3.080408625E0,-2.632872277E0,4.343835697E0,5.210992396E0,7.277043819E0
3.090414625E0,-2.772218443E0,4.755876120E0,5.073347186E0,7.486147503E0
3.100421625E0,-3.083134780E0,5.049605736E0,4.996990736E0,7.744298197E0
3.110428625E0,-3.763860317E0,5.375907267E0,5.010061601E0,8.256375759E0
3.120434625E0,-4.286228636E0,5.943333938E0,4.995620733E0,8.868551219E0
3.130441625E0,-4.510849718E0,6.226190071E0,4.819633283E0,9.074253300E0
3.140448625E0,-4.541706644E0,6.631382820E0,4.190124969E0,9.064186925E0
3.150454625E0,-3.154147167E0,6.751315060E0,4.167376961E0,8.537911345E0
3.160461625E0,-2.270409518E0,6.011368046E0,4.186496480E0,7.669293184E0
3.170468625E0,-2.082380312E0,5.004444766E0,3.082165896E0,6.235424748E0
3.180474625E0,-1.664788397E0,3.405116680E0,1.739483799E0,4.170388938E0
3.190481625E0,-1.032382422E0,1.726741839E0,-9.244681835E-1,2.214066907E0
3.200488625E0,-5.975447284E-1,-1.016299875E0,-5.224394799E0,5.355765693E0
3.210494625E0,1.683176282E0,-5.511964958E0,-8.636066208E0,1.038250835E1
3.220501625E0,4.569827951E0,-1.136064417E1,-1.041011261E1,1.607227451E1
3.230508625E0,5.096127353E0,-1.608576160E1,-1.173746213E1,2.055456780E1
3.240514625E0,2.843256266E0,-1.565039312E1,-9.748743399E0,1.865628336E1
3.250521625E0,1.311839642E0,-9.578950782E0,-5.157020842E0,1.095774088E1
3.260528625E0,5.368904276E-1,-3.540225368E0,-2.120648292E0,4.161561746E0
3.270534625E0,3.601533278E-1,5.353476763E-2,5.255454040E-1,6.393546453E-1
3.280541625E0,3.032374808E-1,2.500838932E0,2.665615515E0,3.667649712E0
3.290548625E0,-8.270504279E-1,4.437531481E0,4.424401558E0,6.320682495E0
3.300554625E0,-2.203587830E0,5.678881915E0,4.579697466E0,7.620966344E0
3.310561625E0,-5.159956144E0,5.159964330E0,3.689571150E0,8.176999117E0
3.320568625E0,-6.513116452E0,3.378498985E0,2.078889817E0,7.626055610E0
3.330574625E0,-6.740077296E0,5.405522829E-1,-8.467630729E-1,6.814532004E0
3.340581625E0,-7.837117864E0,-2.986743722E0,-1.322001372E0,8.490508942E0
3.350588625E0,-6.354404308E0,-6.042385771E0,-5.536784050E-1,8.786093539E0
3.360594625E0,-2.652730591E0,-8.178120464E0,2.384582544E0,8.922156007E0
3.370601625E0,9.438277298E-1,-8.378324450E0,5.913680953E0,1.029848308E1
3.380608625E0,3.705101062E0,-7.535575199E0,6.862426776E0,1.084461012E1
3.390614625E0,6.148170088E0,-5.243698797E0,7.368424938E0,1.093572396E1
3.400621625E0,6.001825390E0,-1.885563911E0,7.937798731E0,1.012847017E1
3.410628625E0,3.147774287E0,1.316945577E0,8.081112818E0,8.771956052E0
3.420634625E0,7.893089897E-1,3.587412398E0,7.241754366E0,8.120070363E0
3.430641625E0,-5.806101687E-1,4.285859385E0,4.325181617E0,6.116608117E0
3.440648625E0,-5.444888478E-1,4.052402283E0,1.868209959E0,4.495402187E0
3.450654625E0,1.222451941E0,3.062576262E0,1.836841109E0,3.774618837E0
3.460661625E0,2.530509458E0,1.521227996E0,3.376250145E0,4.485161957E0
3.470668625E0,2.956238213E0,1.603698295E-1,3.634746194E0,4.687903876E0
3.480674625E0,2.746190732E0,-1.153087884E0,3.005081760E0,4.231039067E0
3.490681625E0,1.830113303E0,-1.917611915E0,2.052542117E0,3.352533266E0
3.500688625E0,4.632097728E-1,-1.708452333E0,7.947829337E-1,1.940374340E0
3.510694625E0,-2.410867313E-1,-1.129952205E0,-1.052124596E-1,1.160165704E0
3.520701625E0,-7.037766501E-1,-5.242479068E-1,-7.655945103E-1,1.164591085E0
3.530708625E0,-1.767047281E0,3.226446819E-1,-1.118874071E0,2.116231290E0
3.540714625E0,-1.872720794E0,1.256239200E0,-8.518060040E-1,2.410558766E0
3.550721625E0,-1.460463731E0,1.665728483E0,-6.772957067E-1,2.316535163E0
3.560728625E0,-9.703737965E-1,1.743131585E0,-8.182488334E-1,2.156307997E0
3.570734625E0,-2.903329682E-1,1.724815181E0,-1.121148638E0,2.077559845E0
3.580741625E0,4.303279556E-1,1.713770961E0,-1.203948720E0,2.138150035E0
3.590748625E0,8.993714223E-1,1.619775800E0,-1.025933674E0,2.117801336E0
3.600754625E0,1.089767070E0,1.473936886E0,-5.743450963E-1,1.920925428E0
3.610761625E0,1.516869774E0,1.097624120E0,-7.257573204E-3,1.872358217E0
3.620768625E0,1.987920298E0,4.860825455E-1,3.950741422E-1,2.084271318E0
3.630774625E0,2.396909351E0,-2.151102930E-1,6.470850438E-1,2.492020451E0
3.640781625E0,2.966303318E0,-7.962516081E-1,9.016312981E-1,3.200923460E0
3.650788625E0,3.511601493E0,-1.030822020E0,1.140733886E0,3.833433563E0
3.660794625E0,3.826268819E0,-9.252809465E-1,1.241576722E0,4.127710099E0
3.670801625E0,3.899647867E0,-6.531994772E-1,1.138555214E0,4.114636195E0
3.680808625E0,3.647166265E0,-3.619379711E-1,9.575593311E-1,3.788105163E0
3.690814625E0,2.978222575E0,-3.537857831E-2,5.957681251E-1,3.037433293E0
3.700821083E0,2.343176217E0,1.734763634E-1,-1.236288500E-1,2.352839333E0
3.710828083E0,2.074023326E0,1.386404067E-1,-7.076645368E-1,2.195810332E0
3.720834083E0,2.030779511E0,-8.733927548E-2,-1.195605839E0,2.358212648E0
3.730841083E0,2.359452673E0,-5.636324126E-1,-1.642202795E0,2.929424590E0
3.740848083E0,2.672925412E0,-1.142296847E0,-1.979883592E0,3.517003182E0
3.750854083E0,2.310424208E0,-1.545295721E0,-2.231826666E0,3.564694819E0
3.760861083E0,1.422325413E0,-1.732121277E0,-2.599461579E0,3.432266628E0
3.770868083E0,5.279129416E-1,-1.794262562E0,-3.028698664E0,3.559646866E0
3.780874083E0,1.083233245E-1,-1.803109399E0,-3.157998728E0,3.638116740E0
3.790881083E0,6.517138459E-1,-1.804756560E0,-2.930335048E0,3.502676215E0
3.800888083E0,1.934977414E0,-1.661246007E0,-2.471694070E0,3.551499327E0
3.810894083E0,3.081924114E0,-1.463424177E0,-2.125519023E0,4.019663876E0
3.820901083E0,4.026825685E0,-1.397868703E0,-1.881205396E0,4.659216216E0
3.830908083E0,4.822605715E0,-1.440997766E0,-1.512612124E0,5.255663220E0
3.840914083E0,5.282503259E0,-1.885035907E0,-1.336793366E0,5.765866592E0
3.850921083E0,5.569926653E0,-2.897761964E0,-1.182286540E0,6.388967740E0
3.860928083E0,5.945989158E0,-4.170799044E0,-4.637777567E-1,7.277736018E0
3.870934083E0,6.499590088E0,-4.827316816E0,6.328634459E-1,8.120848176E0
3.880941083E0,6.764936734E0,-4.918425207E0,1.430529495E0,8.485380968E0
3.890948083E0,6.968979417E0,-4.640625161E0,1.532135392E0,8.511728077E0
3.900954083E0,6.628490202E0,-3.656920005E0,8.864636207E-1,7.622057730E0
3.910961083E0,5.506195511E0,-2.375999708E0,4.114561401E-2,5.997104016E0
3.920968083E0,4.398093181E0,-1.712642448E0,-1.702977439E-1,4.722856032E0
3.930974083E0,3.236179510E0,-1.532473361E0,5.340086639E-1,3.620289723E0
3.940981083E0,2.184107101E0,-1.460858418E0,1.487066370E0,3.019237906E0
3.950988083E0,2.078956768E0,-1.304502118E0,2.508939664E0,3.509781369E0
3.960994083E0,2.111953190E0,-1.062135614E0,3.344504150E0,4.095630153E0
3.971001083E0,1.936113090E0,-1.657469875E0,4.198400241E0,4.911446311E0
3.981008083E0,2.341707689E0,-2.950548288E0,6.486516298E0,7.500948192E0
3.991014083E0,2.610567196E0,-3.972050430E0,8.288305396E0,9.554488581E0
4.001021083E0,2.479348368E0,-4.819279819E0,7.365502499E0,9.144575078E0
4.011028083E0,2.173445726E0,-5.894640664E0,5.293262136E0,8.215185873E0
4.021034083E0,2.536647280E0,-6.595654578E0,5.419875405E0,8.905744671E0
4.031041083E0,4.581729081E0,-6.550659084E0,7.380602349E0,1.088010417E1
4.041048083E0,5.486983314E0,-5.601833155E0,7.611103098E0,1.092778161E1
4.051054083E0,5.152714368E0,-4.372447293E0,7.119869156E0,9.816379041E0
4.061061083E0,4.445688639E0,-3.084768199E0,7.724905118E0,9.431548197E0
4.071068083E0,3.469790978E0,-1.721554774E0,8.404671419E0,9.254280195E0
4.081074083E0,2.041201881E0,-4.018604207E-1,8.496402538E0,8.747391212E0
4.091081083E0,4.746801826E-1,9.308276153E-1,8.477807808E0,8.541954493E0
4.101088083E0,8.112682812E-3,1.512154287E0,8.172912349E0,8.311628762E0
4.111094083E0,-1.259686133E-1,1.444481537E0,7.820073815E0,7.953360892E0
4.121101083E0,-8.980340910E-1,1.565391431E0,7.416317727E0,7.632737660E0
4.131108083E0,-1.483873644E0,1.752586532E0,6.893901168E0,7.266313636E0
4.141114083E0,-1.811871744E0,1.578899084E0,6.242566368E0,6.689202972E0
4.151121083E0,-1.740677362E0,1.308194050E0,5.625614950E0,6.032319033E0
4.161128083E0,-1.487733537E0,1.119980949E0,5.232856305E0,5.554322057E0
4.171134083E0,-1.480185074E0,1.076521518E0,5.193965889E0,5.507007181E0
4.181141083E0,-1.763637185E0,1.217022509E0,5.509634843E0,5.911652562E0
4.191148083E0,-1.914707310E0,1.324365109E0,5.842168336E0,6.288956821E0
4.201154083E0,-2.030439788E0,1.405936691E0,6.041678842E0,6.526961540E0
4.211161083E0,-2.291872016E0,1.369638931E0,5.871744722E0,6.450269314E0
4.221168083E0,-2.545411087E0,1.114069998E0,5.328016816E0,6.008995986E0
4.231174083E0,-2.897385988E0,6.141728210E-1,4.480690072E0,5.371092751E0
4.241181083E0,-3.554281782E0,-2.376074553E-2,3.460878067E0,4.960963672E0
4.251188083E0,-4.225752931E0,-5.602065289E-1,2.353142942E0,4.869096518E0
4.261194083E0,-4.788155090E0,-8.026560634E-1,1.197482868E0,5.000465092E0
4.271201083E0,-5.061114811E0,-5.492248732E-1,-1.202588072E-1,5.092248351E0
4.281208083E0,-4.567488480E0,-3.987274826E-2,-1.226020789E0,4.729341162E0
4.291214083E0,-3.761038451E0,2.653273505E-1,-2.065207332E0,4.298940585E0
4.301221083E0,-2.081470047E0,4.156937635E-1,-2.944016948E0,3.629401418E0
4.311228083E0,2.738035657E-1,-1.258262336E-1,-3.711755193E0,3.723966602E0
4.321235083E0,1.988112525E0,-9.811861753E-1,-4.293257282E0,4.831912231E0
4.331241083E0,3.992265132E0,-1.478287214E0,-5.216427383E0,6.733099481E0
4.341248083E0,6.542315108E0,-2.110627919E0,-5.764857620E0,8.971634219E0
4.351255083E0,8.818134470E0,-3.110487762E0,-4.980709748E0,1.059443718E1
4.361261083E0,9.811943614E0,-3.804865671E0,-2.450848746E0,1.080545695E1
4.371268083E0,9.412809750E0,-2.799459159E0,6.071865678E-2,9.820470749E0
4.381275083E0,8.344956729E0,-3.037090588E-1,4.500251055E-1,8.362599154E0
4.391281083E0,6.640884545E0,2.511765039E0,5.746628925E-1,7.123240035E0
4.401288083E0,4.943722601E0,4.781575803E0,2.345579861E0,7.266746534E0
4.411295083E0,2.290783703E0,6.397225222E0,4.810204647E0,8.325277729E0
4.421301083E0,-5.046333488E-1,7.218623950E0,6.893579571E0,9.994229628E0
4.431308083E0,-2.638049694E0,5.928628190E0,8.159490066E0,1.042522022E1
4.441315083E0,-3.877016219E0,2.996596865E0,8.562193655E0,9.865191722E0
4.451321083E0,-5.415674765E0,-2.060722518E-1,7.500445712E0,9.253576866E0
4.461328083E0,-7.771277046E0,-4.354389921E0,2.624817153E0,9.286717590E0
4.471335083E0,-1.035135861E1,-1.141472624E1,-7.980125556E0,1.735306901E1
4.481341083E0,-1.124978915E1,-1.768361735E1,-1.130371802E1,2.381264621E1
4.491348083E0,-7.403143365E0,-1.629807283E1,-3.550168266E0,1.824931243E1
4.501355083E0,-3.654885174E0,-9.499398243E0,3.117963720E0,1.064511392E1
4.511361083E0,-1.975277740E0,-7.966913188E-1,6.038384521E0,6.403009201E0
4.521368083E0,-5.797811431E-1,4.483563686E0,7.127282256E0,8.440180203E0
4.531375083E0,-3.533325142E-1,6.069412186E0,6.360077276E0,8.798476636E0
4.541381083E0,1.010785512E-1,6.241795705E0,6.828697697E0,9.252099369E0
4.551388083E0,1.919566639E0,5.353173877E0,6.856303571E0,8.907867607E0
4.561395083E0,4.690016592E0,2.596142700E0,7.375401835E0,9.117717082E0
4.571401083E0,6.292669405E0,-8.569170552E-1,8.093575573E0,1.028775780E1
4.581408083E0,7.964319947E0,-3.196861662E0,6.829965373E0,1.096807840E1
4.591415083E0,8.932434672E0,-4.463270924E0,4.033694116E0,1.076939482E1
4.601421083E0,8.158898912E0,-3.897091464E0,1.546385057E0,9.173127061E0
4.611428083E0,6.426138534E0,-1.872450945E0,8.444480141E-1,6.746437686E0
4.621435083E0,4.468096631E0,-6.293942928E-2,1.412900286E0,4.686591096E0
4.631441083E0,2.425120997E0,1.159470704E0,1.602849133E0,3.129650062E0
4.641448083E0,2.217313146E-1,1.652226677E0,9.625698102E-1,1.924982703E0
4.651455083E0,-1.948628178E0,1.897112162E0,2.407299415E-1,2.730226590E0
4.661461083E0,-3.193215339E0,1.744626718E0,-1.511785182E-1,3.641867862E0
4.671468083E0,-3.186073842E0,1.271259527E0,-5.378818595E-1,3.472244837E0
4.681475083E0,-2.494916287E0,1.018629990E0,-8.352010079E-1,2.821307332E0
4.691481083E0,-1.888607971E0,7.759290254E-1,-8.396519816E-1,2.207695942E0
4.701489125E0,-1.031022433E0,6.701417845E-1,-8.188709772E-1,1.477378403E0
4.711496125E0,-1.781658304E-1,4.989984602E-1,-6.178308392E-1,8.139149048E-1
4.721502125E0,3.753355502E-1,3.623373359E-1,-7.576822956E-2,5.271678526E-1
4.731509125E0,6.569699080E-1,3.488881552E-1,6.704125106E-1,1.001391701E0
4.741516125E0,5.636464459E-1,1.868723345E-1,1.319813052E0,1.447247414E0
4.751522125E0,1.889434183E-1,-2.446007252E-2,1.798286031E0,1.808350231E0
4.761529125E0,2.040216333E-1,-1.459792471E-1,1.873125129E0,1.889849866E0
4.771536125E0,4.287193134E-1,-2.310269988E-1,1.510996538E0,1.587540319E0
4.781543125E0,1.008048138E0,-3.808747637E-1,1.012923692E0,1.478932399E0
4.791549125E0,1.842616550E0,-2.347405654E-1,5.077236388E-1,1.925648508E0
4.801556125E0,2.562943963E0,1.610428441E-1,2.590088493E-1,2.581027342E0
4.811563125E0,3.173102086E0,4.968846917E-1,1.852566757E-1,3.217109150E0
4.821569125E0,3.683006773E0,5.766600090E-1,2.869556165E-1,3.738906148E0
4.831576125E0,4.111825197E0,6.124385369E-1,7.652601957E-1,4.227033307E0
4.841583125E0,4.149200014E0,5.711747360E-1,1.317540239E0,4.390673481E0
4.851589125E0,3.657393045E0,1.361898386E-1,1.517769368E0,3.962157924E0
4.861596125E0,2.912866491E0,-4.050500768E-1,9.211819021E-1,3.081790528E0
4.871603125E0,2.615048502E0,-9.140548772E-1,-1.059117866E-1,2.772217938E0
4.881609125E0,2.199151109E0,-1.575919343E0,-1.157700021E0,2.942797430E0
4.891616125E0,1.736466636E0,-2.059512144E0,-2.308712874E0,3.547824937E0
4.901623125E0,1.284458593E0,-2.242072157E0,-3.376520872E0,4.251777820E0
4.911629125E0,7.491272892E-1,-2.187371455E0,-3.876760111E0,4.513873562E0
4.921636125E0,2.697137855E-1,-1.836316321E0,-3.739349958E0,4.174630675E0
4.931643125E0,-7.769385472E-2,-1.310304894E0,-3.047271175E0,3.317950702E0
4.941649125E0,6.259751335E-2,-1.023147549E0,-1.585035883E0,1.887614396E0
4.951656125E0,7.522176889E-1,-9.347990441E-1,-1.056318511E-1,1.204507697E0
4.961663125E0,1.608475617E0,-8.424551368E-1,1.017143774E0,2.081227024E0
4.971669125E0,2.425926159E0,-1.123599790E0,1.797166435E0,3.221397432E0
4.981676125E0,3.139765940E0,-1.732003748E0,2.137284936E0,4.174440567E0
4.991683125E0,3.805857359E0,-2.431234846E0,1.935127688E0,4.913264931E0
5.001689125E0,4.354981075E0,-3.026792471E0,1.555433623E0,5.526907506E0
5.011696125E0,4.970820352E0,-3.384780064E0,9.897096616E-1,6.094695749E0
5.021703125E0,5.454851110E0,-3.228052465E0,2.473261124E-1,6.343255753E0
5.031709125E0,5.570243572E0,-2.861702185E0,-6.217870653E-1,6.293136897E0
5.041716125E0,5.244034427E0,-2.744503518E0,-1.573941815E0,6.124499120E0
5.051723125E0,4.707555315E0,-3.269410990E0,-2.601140315E0,6.294128709E0
5.061729125E0,4.037753546E0,-3.873649977E0,-3.386083993E0,6.540197447E0
5.071736125E0,3.559001655E0,-3.810597112E0,-3.628529434E0,6.352430163E0
5.081743125E0,3.094300915E0,-3.266752262E0,-3.481435708E0,5.689179473E0
5.091749125E0,2.474822038E0,-2.473425431E0,-2.862892678E0,4.520921584E0
5.101756125E0,2.260186831E0,-1.634333612E0,-1.999988074E0,3.432119340E0
5.111763125E0,2.085171188E0,-5.190661043E-1,-1.337068185E0,2.530833823E0
5.121770125E0,1.815889074E0,3.008240426E-1,-1.020257855E0,2.104489088E0
5.131776125E0,1.483352949E0,2.498491859E-1,-6.086659133E-1,1.622724494E0
5.141783125E0,1.011749864E0,-6.912274289E-1,3.555082997E-1,1.275860218E0
5.151790125E0,1.831479505E-1,-2.005338861E0,1.038396430E0,2.265655372E0
5.161796125E0,-6.505033261E-1,-3.188874950E0,1.715995241E0,3.679227867E0
5.171803125E0,-1.037730505E0,-4.159571806E0,2.357085281E0,4.892317777E0
5.181810125E0,-8.707128297E-1,-4.731257004E0,2.956857433E0,5.646763635E0
5.191816125E0,-5.253664792E-1,-4.429597979E0,3.447952212E0,5.637882816E0
5.201823125E0,1.192577639E-1,-3.311802135E0,4.108589348E0,5.278518942E0
5.211830125E0,1.439937665E0,-2.095138060E0,5.424898163E0,5.991038645E0
5.221836125E0,2.339393215E0,-1.393996677E0,6.019370545E0,6.606724537E0
5.231843125E0,2.245580487E0,-1.057474213E0,5.683644472E0,6.201991448E0
5.241850125E0,2.489186600E0,-1.004656899E0,4.922869091E0,5.607140582E0
5.251856125E0,2.492803396E0,-1.101470418E0,4.118413839E0,4.938485436E0
5.261863125E0,1.573350808E0,-1.294626170E0,3.681266642E0,4.207518719E0
5.271870125E0,1.838824156E-1,-1.373810919E0,2.995506067E0,3.300640208E0
5.281876125E0,-7.013033509E-1,-1.203145897E0,2.171137245E0,2.579384302E0
5.291883125E0,-1.121474474E0,-7.578792554E-1,2.230771828E0,2.609296631E0
5.301890125E0,-1.234106027E0,-2.566009659E-1,2.662365048E0,2.945683179E0
5.311896125E0,-1.387380552E0,2.915035808E-1,3.126646250E0,3.433033048E0
5.321903125E0,-1.737803602E0,9.342973530E-1,3.586807504E0,4.093661072E0
5.331910125E0,-1.833153270E0,1.402907833E0,4.164839855E0,4.761774072E0
5.341916125E0,-2.137496313E0,1.770381364E0,4.453389130E0,5.247457994E0
5.351923125E0,-2.736084112E0,2.059541380E0,4.493256615E0,5.649532899E0
5.361930125E0,-3.104894316E0,1.998384182E0,4.357384865E0,5.711454361E0
5.371937125E0,-3.331832356E0,1.920412731E0,4.213341047E0,5.704501265E0
5.381943125E0,-3.670598981E0,2.105499911E0,4.053828126E0,5.860029798E0
5.391950125E0,-3.962461581E0,2.556357075E0,3.653542653E0,5.965269248E0
5.401957125E0,-4.043801906E0,2.988510751E0,3.145396224E0,5.931024175E0
5.411963125E0,-4.096621267E0,3.636122628E0,2.748839521E0,6.128606063E0
5.421970125E0,-3.766717266E0,4.231546937E0,2.636239104E0,6.248512228E0
5.431977125E0,-3.441050451E0,4.530647221E0,2.552444411E0,6.235588578E0
5.441983125E0,-3.224139508E0,4.797261543E0,2.491828080E0,6.294283205E0
5.451990125E0,-2.945556812E0,4.818716147E0,2.149577684E0,6.042930949E0
5.461997125E0,-2.827096608E0,4.478677753E0,1.491180617E0,5.502240387E0
5.472003125E0,-3.068418800E0,3.795936388E0,8.495095101E-1,4.954391325E0
5.482010125E0,-2.968085257E0,3.015139555E0,-4.936190218E-2,4.231197611E0
5.492017125E0,-2.133413787E0,2.204565192E0,-9.776687828E-1,3.219844457E0
5.502023125E0,-6.048004653E-1,1.278960895E0,-1.999622623E0,2.449492847E0
5.512030125E0,1.211987545E0,-1.358887070E-1,-3.773538043E0,3.965724261E0
5.522037125E0,3.337365577E0,-2.025048655E0,-5.751285063E0,6.950979134E0
5.532043125E0,5.418095512E0,-3.907065060E0,-6.902119430E0,9.605215718E0
5.542050125E0,6.244476653E0,-5.060282752E0,-7.241161458E0,1.081824244E1
5.552057125E0,5.904704307E0,-5.150826302E0,-6.705588080E0,1.031316906E1
5.562063125E0,3.970371110E0,-3.813739990E0,-5.540613391E0,7.810688588E0
5.572070125E0,1.859074562E0,-1.841577646E0,-3.866987367E0,4.669170992E0
5.582077125E0,4.887130617E-1,-1.857660413E-1,-2.257477816E0,2.317230150E0
5.592083125E0,-3.623716883E-1,8.953858870E-1,-1.253690983E0,1.582646583E0
5.602090125E0,-7.518950687E-1,1.724087203E0,-5.138173512E-1,1.949828492E0
5.612097125E0,-7.366344206E-1,2.057275000E0,1.924669504E-1,2.193639492E0
5.622104125E0,-1.398458979E0,1.471714944E0,5.170245489E-1,2.094981331E0
5.632110125E0,-2.775515980E0,1.045423687E-1,4.329021192E-1,2.811018020E0
5.642117125E0,-3.866433928E0,-2.042219589E0,8.044420955E-1,4.446020609E0
5.652124125E0,-4.456050782E0,-4.790339609E0,1.225273807E0,6.656202975E0
5.662130125E0,-4.411760755E0,-7.941207073E0,1.056106257E0,9.145587087E0
5.672137125E0,-3.850127213E0,-1.109298203E1,-9.616775250E-1,1.178144955E1
5.682144125E0,-2.921036806E0,-1.129690952E1,-2.873301891E0,1.201700813E1
5.692150125E0,-2.290551276E0,-6.513196558E0,-2.175195505E0,7.238772689E0
5.702156083E0,-1.723287450E0,-3.191024387E-1,1.441326379E0,2.269133697E0
5.712163083E0,-3.198600039E0,5.245520790E0,7.943989179E0,1.004258406E1
5.722169083E0,-6.356081289E0,8.839166320E0,9.576843445E0,1.449988141E1
5.732176083E0,-7.679421966E0,1.030640990E1,6.806999849E0,1.454410030E1
5.742183083E0,-5.774574523E0,9.597521539E0,5.815326108E0,1.262046546E1
5.752189083E0,-2.571682627E0,5.720328734E0,6.314732119E0,8.900087308E0
5.762196083E0,-4.689972007E-1,1.184863992E0,6.409961042E0,6.535400647E0
5.772203083E0,2.177234722E0,-2.189609769E0,6.291022829E0,7.007974758E0
5.782209083E0,4.783924921E0,-5.224423451E0,5.317211162E0,8.857385200E0
5.792216083E0,5.375446506E0,-7.211251196E0,3.427608579E0,9.625282829E0
5.802223083E0,4.752015204E0,-6.957633480E0,2.220411147E0,8.713239225E0
5.812229083E0,3.359721821E0,-4.574546946E0,1.331036782E0,5.829740079E0
5.822236083E0,2.864983642E-1,-1.452686350E0,4.702810665E-1,1.553558246E0
5.832243083E0,-2.151682097E0,8.420891011E-1,-4.635415292E-1,2.356633330E0
5.842250083E0,-4.327884201E0,2.408633019E0,-1.539073699E0,5.186602214E0
5.852256083E0,-4.978647435E0,3.603718529E0,-1.286209688E0,6.279176131E0
5.862263083E0,-4.541789675E0,3.815883579E0,-5.042597848E-1,5.953410692E0
5.872270083E0,-3.581632426E0,3.216163906E0,-8.162128329E-2,4.814401638E0
5.882276083E0,-2.573232432E0,2.189659470E0,3.916886044E-1,3.401404667E0
5.892283083E0,-1.583911318E0,1.364796267E0,9.181806725E-1,2.283527897E0
5.902290083E0,-1.057830747E-1,8.807912368E-1,1.187163702E0,1.482005708E0
5.912296083E0,1.328080722E0,5.258003426E-1,1.258259997E0,1.903544753E0
5.922303083E0,2.310383424E0,1.091236621E-1,9.752793181E-1,2.510169175E0
5.932310083E0,2.998403655E0,-2.680761266E-1,3.622116208E-1,3.032076276E0
5.942316083E0,3.373046748E0,-6.041156101E-1,-4.062153538E-1,3.450711659E0
5.952323083E0,3.028639314E0,-6.306438428E-1,-1.148973783E0,3.300077046E0
5.962330083E0,2.665630426E0,-3.493804908E-1,-1.499737578E0,3.078451737E0
5.972336083E0,1.882692343E0,5.915569603E-2,-1.490647643E0,2.402094971E0
5.982343083E0,1.006806189E0,2.716821045E-1,-1.354695348E0,1.709581631E0
5.992350083E0,5.008980013E-1,3.125822085E-1,-1.294865614E0,1.423124521E0
6.002356083E0,2.953645338E-1,3.650884509E-1,-1.360578524E0,1.439341413E0
6.012363083E0,2.668224104E-1,3.731687182E-1,-1.403922325E0,1.476972236E0
6.022370083E0,4.005609958E-2,2.983003843E-1,-1.393158771E0,1.425299607E0
6.032377083E0,9.119938798E-2,1.067964703E-1,-1.526084547E0,1.532532825E0
6.042383083E0,3.796694333E-1,-2.169925117E-1,-1.874292233E0,1.924631394E0
6.052390083E0,6.099817927E-1,-4.310608310E-1,-2.523823167E0,2.632028610E0
6.062397083E0,1.034035649E0,-4.013967365E-1,-3.038069412E0,3.234225535E0
6.072403083E0,1.749058176E0,-4.024118131E-1,-3.071930637E0,3.557793925E0
6.082410083E0,2.336803775E0,-6.020591444E-1,-2.494024879E0,3.470343959E0
6.092417083E0,2.572631338E0,-8.803977191E-1,-1.475466517E0,3.093627901E0
6.102423083E0,2.703988453E0,-9.869468522E-1,-6.043939376E-1,2.941242879E0
6.112430083E0,2.982696864E0,-8.092680949E-1,-5.977164173E-1,3.147802463E0
6.122437083E0,3.241995150E0,-7.840543163E-1,-1.310032414E0,3.583498103E0
6.132443083E0,3.141251425E0,-1.229441995E0,-1.868380698E0,3.856142447E0
6.142450083E0,2.755482250E0,-1.851360623E0,-1.953024407E0,3.851561102E0
6.152457083E0,2.118169804E0,-2.293898368E0,-1.795380549E0,3.601666886E0
6.162463083E0,1.328664567E0,-2.550489394E0,-1.963202071E0,3.482026429E0
6.172470083E0,6.646080527E-1,-2.630928370E0,-2.486014194E0,3.680184034E0
6.182477083E0,6.195811301E-1,-2.700182208E0,-3.017371438E0,4.096265998E0
6.192484083E0,1.135607632E0,-2.947306591E0,-3.426772428E0,4.660363731E0
6.202490083E0,2.009296549E0,-3.417618611E0,-3.828085549E0,5.511046050E0
6.212497083E0,2.851043588E0,-3.675783123E0,-3.939360402E0,6.095768326E0
6.222504083E0,3.403932034E0,-3.590345362E0,-3.705642514E0,6.181352566E0
6.232510083E0,3.563161656E0,-3.499040505E0,-3.137314788E0,5.897639317E0
6.242517083E0,3.383446314E0,-3.385269476E0,-2.423681413E0,5.364884898E0
6.252524083E0,2.837360226E0,-3.137914712E0,-1.906184117E0,4.640114188E0
6.262530083E0,1.943206055E0,-2.425132692E0,-2.157454761E0,3.783111073E0
6.272537083E0,8.139454289E-1,-1.754512605E0,-2.979487912E0,3.552206337E0
6.282544083E0,-2.788691730E-1,-1.631204767E0,-2.626440632E0,3.104317542E0
6.292550083E0,-1.595852501E0,-9.916450900E-1,-1.653920396E-1,1.886122933E0
6.302557083E0,-3.245852851E0,-1.004603689E0,1.479934959E0,3.706075659E0
6.312564083E0,-5.035002900E0,-2.220764903E0,2.071881198E0,5.880114170E0
6.322570083E0,-6.506714335E0,-3.477704599E0,2.204259968E0,7.700033943E0
6.332577083E0,-7.354954122E0,-4.190681332E0,2.783699158E0,8.911012354E0
6.342584083E0,-6.750214030E0,-4.680793194E0,3.009773566E0,8.748368493E0
6.352591083E0,-5.684050269E0,-5.231247736E0,2.035626415E0,7.988626618E0
6.362597083E0,-4.766316909E0,-5.361003883E0,8.473071563E-1,7.223300418E0
6.372604083E0,-2.478328906E0,-4.813669415E0,1.253742439E0,5.557463226E0
6.382611083E0,-3.751822069E-2,-4.451350790E0,1.451660163E0,4.682226896E0
6.392617083E0,2.603652864E0,-4.184279800E0,1.191802883E-1,4.929645993E0
6.402624083E0,4.381600524E0,-3.689860294E0,4.106353372E-1,5.743005618E0
6.412631083E0,4.397380990E0,-2.762019437E0,1.575334622E0,5.426544951E0
6.422637083E0,2.257212645E0,-5.294004732E-1,2.927284555E0,3.734202546E0
6.432644083E0,7.024786413E-1,2.078237852E0,3.724759401E0,4.322774735E0
6.442651083E0,-3.685744147E-1,3.635108721E0,4.792286732E0,6.026265397E0
6.452657083E0,-1.197473221E0,4.505067406E0,5.772622138E0,7.419753419E0
6.462664083E0,-1.861963233E0,5.001034670E0,5.812057514E0,7.890327458E0
6.472671083E0,-2.171568624E0,5.134311426E0,5.369240856E0,7.739871541E0
6.482677083E0,-1.740209585E0,4.354562999E0,4.832251282E0,6.733587510E0
6.492684083E0,-1.096676359E0,3.397797135E0,4.485127816E0,5.732721512E0
6.502691083E0,-7.632953851E-1,3.044273892E0,3.991963708E0,5.077991495E0
6.512698083E0,-1.083545121E0,2.925879470E0,3.495642103E0,4.685547397E0
6.522704083E0,-1.569747753E0,2.886821238E0,3.262760952E0,4.630707711E0
6.532711083E0,-2.172606943E0,3.361366058E0,3.326479231E0,5.204273895E0
6.542718083E0,-2.709612890E0,3.825423896E0,3.624718219E0,5.925744862E0
6.552724083E0,-3.253635495E0,3.910352365E0,3.795429434E0,6.346832607E0
6.562731083E0,-3.894612245E0,4.024663092E0,3.881434375E0,6.814062690E0
6.572738083E0,-4.507222690E0,4.087314253E0,3.785598511E0,7.166027509E0
6.582744083E0,-4.698428396E0,4.051677813E0,3.511834505E0,7.129116641E0
6.592751083E0,-4.130984184E0,3.943454622E0,3.306946607E0,6.599375769E0
6.602758083E0,-3.067146738E0,3.839715076E0,3.251702698E0,5.892738872E0
6.612764083E0,-1.868913379E0,3.818706030E0,3.070865859E0,5.244575301E0
6.622771083E0,-7.553661952E-1,3.665892558E0,2.486478463E0,4.493542197E0
6.632778083E0,4.074793026E-1,3.499255098E0,1.816818196E0,3.963792878E0
6.642784083E0,1.283703572E0,3.245794671E0,6.247051182E-1,3.545889788E0
6.652791083E0,1.795968195E0,2.719914222E0,-1.496372652E0,3.586442003E0
6.662798083E0,2.017801324E0,1.696062083E0,-4.427475732E0,5.152736179E0
6.672805083E0,1.705230517E0,-1.061661404E-1,-7.662811196E0,7.850971774E0
6.682811083E0,2.086484473E0,-2.720626413E0,-9.768214628E0,1.035245104E1
6.692818083E0,2.983516936E0,-5.221785187E0,-9.847019892E0,1.153829340E1
6.702825083E0,2.834319381E0,-6.323952593E0,-8.387819159E0,1.088031493E1
6.712831000E0,2.057422349E0,-5.459710146E0,-7.161732881E0,9.237523449E0
6.722838000E0,1.518294741E0,-3.913420984E0,-5.739302949E0,7.110533106E0
6.732845000E0,1.067985534E0,-2.684088916E0,-3.646761053E0,4.652288962E0
6.742851000E0,9.513179400E-1,-1.537738194E0,-2.149101136E0,2.808608244E0
6.752858000E0,5.959486578E-1,-8.438116908E-1,-1.355650344E0,1.704394563E0
6.762865000E0,-5.181846365E-2,-5.783744127E-1,-8.191262081E-1,1.004076620E0
6.772871000E0,-8.991212346E-1,-5.055719000E-1,-1.005158590E0,1.440265855E0
6.782878000E0,-2.418016192E0,-8.690646458E-1,-1.454069509E0,2.952353942E0
6.792885000E0,-4.436277838E0,-1.291376873E0,-1.629675136E0,4.899393465E0
6.802891000E0,-6.617444227E0,-1.599566068E0,-1.546284485E0,6.981416433E0
6.812898000E0,-8.058333235E0,-2.628094225E0,-1.437839684E0,8.597150501E0
6.822905000E0,-8.184072345E0,-4.315563825E0,-1.465218979E0,9.367496887E0
6.832912000E0,-7.356843942E0,-5.982255344E0,-1.174895367E0,9.554627722E0
6.842918000E0,-5.759719087E0,-7.006740736E0,-1.701842933E0,9.228491159E0
6.852925000E0,-3.396726510E0,-4.939485124E0,3.357997477E-1,6.004084088E0
6.862932000E0,-2.001571500E0,-5.632897657E-1,2.980809090E0,3.634392200E0
6.872938000E0,-1.703461442E0,3.182644157E0,6.346839180E0,7.301600667E0
6.882945000E0,-1.892184421E0,5.771839780E0,8.867618287E0,1.074844874E1
6.892952000E0,-2.114834552E0,7.111756729E0,9.006194959E0,1.166881128E1
6.902958000E0,-1.806183280E0,6.662550818E0,7.876683633E0,1.047349161E1
6.912965000E0,-1.328576274E0,3.779153125E0,6.332008302E0,7.492759331E0
6.922972000E0,3.073006379E-1,4.354058969E-1,6.017777764E0,6.041329422E0
6.932978000E0,1.461162327E0,-2.113398330E0,5.508148481E0,6.077922962E0
6.942985000E0,3.177899727E0,-3.781296129E0,5.058193542E0,7.069835146E0
6.952992000E0,4.604125671E0,-4.614968163E0,4.204524615E0,7.757185803E0
6.962999000E0,4.537031211E0,-4.985341913E0,2.975912340E0,7.368469342E0
6.973005000E0,3.138642983E0,-4.184852242E0,2.264308534E0,5.700101859E0
6.983012000E0,1.581718027E0,-2.025879545E0,1.867395881E0,3.176977687E0
6.993019000E0,-5.675227113E-1,-1.703077573E-1,1.411867522E0,1.531161866E0
7.003025000E0,-2.202379649E0,1.171041175E0,7.166687373E-1,2.595270243E0
7.013032000E0,-3.123013083E0,2.266262673E0,-1.877763871E-1,3.863213324E0
7.023039000E0,-3.931743819E0,2.848223183E0,-4.815509168E-1,4.878819124E0
7.033045000E0,-4.582464661E0,2.882490206E0,-5.210652673E-1,5.438680094E0
7.043052000E0,-4.351077766E0,2.378963662E0,-4.218766093E-1,4.976879113E0
7.053059000E0,-3.259671283E0,1.670685167E0,-1.019345105E-1,3.664292080E0
7.063065000E0,-2.196181747E0,9.449755383E-1,8.726150751E-2,2.392448036E0
7.073072000E0,-1.310962414E0,2.735596454E-1,1.267465854E-1,1.345184756E0
7.083079000E0,-4.406614474E-1,1.382895738E-1,4.796453458E-1,6.658574737E-1
7.093086000E0,3.235591865E-1,4.686040485E-1,8.148755747E-1,9.941340471E-1
7.103092000E0,1.186707473E0,1.031581573E0,8.884902656E-1,1.806059279E0
7.113099000E0,1.802762659E0,1.365618385E0,5.959692693E-1,2.338812979E0
7.123106000E0,2.478078353E0,1.332120856E0,2.295510884E-1,2.822784441E0
7.133112000E0,3.138073756E0,1.058640148E0,-3.277112943E-1,3.328005492E0
7.143119000E0,3.622338110E0,6.006476265E-1,-8.751128595E-1,3.774643489E0
7.153126000E0,3.576506757E0,5.864815772E-2,-1.446316393E0,3.858324934E0
7.163132000E0,3.412536504E0,-4.655190575E-1,-1.857828959E0,3.913264855E0
7.173139000E0,2.921258707E0,-8.315629435E-1,-1.986585086E0,3.629293274E0
7.183146000E0,2.395890766E0,-7.069745654E-1,-1.855207067E0,3.111574981E0
7.193152000E0,2.010327413E0,-1.200158554E-1,-1.853611947E0,2.737096520E0
7.203159000E0,1.539095187E0,4.526323789E-1,-2.051339491E0,2.604166618E0
7.213166000E0,1.326655171E0,7.239332449E-1,-2.065587401E0,2.559442244E0
7.223173000E0,1.325537037E0,6.977546757E-1,-2.170314104E0,2.637076664E0
7.233179000E0,1.605915852E0,4.862679023E-1,-2.480141250E0,2.994415271E0
7.243186000E0,2.110281764E0,5.188819170E-3,-2.696204347E0,3.423862428E0
7.253193000E0,2.605404105E0,-6.458366632E-1,-2.522697578E0,3.683644746E0
7.263199000E0,2.891434692E0,-1.015692934E0,-2.410673843E0,3.899150560E0
7.273206000E0,3.079956526E0,-1.009411270E0,-2.623057433E0,4.169589142E0
7.283213000E0,3.138729521E0,-9.252686673E-1,-2.670942914E0,4.223941425E0
7.293219000E0,2.782804534E0,-9.108950418E-1,-2.072399115E0,3.587278766E0
7.303226000E0,2.179361062E0,-7.350873935E-1,-1.444734136E0,2.716104718E0
7.313233000E0,1.601003314E0,-2.836624646E-1,-1.767018045E0,2.401255667E0
7.323239000E0,1.622873216E0,1.142499161E-1,-2.317085502E0,2.831193342E0
7.333246000E0,2.217585626E0,-2.020850354E-1,-2.275922273E0,3.184077035E0
7.343253000E0,2.607386018E0,-1.249202660E0,-2.006083211E0,3.518996872E0
7.353260000E0,2.609362085E0,-2.103318315E0,-1.820120704E0,3.813863893E0
7.363266000E0,2.264153290E0,-2.597174149E0,-1.836037409E0,3.904194801E0
7.373273000E0,1.786656357E0,-2.868821754E0,-2.192677803E0,4.028661707E0
7.383280000E0,1.298180108E0,-3.096303002E0,-2.746375796E0,4.337619610E0
7.393286000E0,1.296835248E0,-3.546559657E0,-3.522960294E0,5.164408611E0
7.403293000E0,2.222235771E0,-4.030438387E0,-3.780008572E0,5.955772848E0
7.413300000E0,3.433440592E0,-4.203959774E0,-3.169081541E0,6.285289961E0
7.423306000E0,4.399627490E0,-4.301721711E0,-2.207679858E0,6.537230460E0
7.433313000E0,5.116761593E0,-4.719787105E0,-1.278165089E0,7.077523967E0
7.443320000E0,5.204727105E0,-5.478349316E0,-8.944183190E-1,7.609302175E0
7.453326000E0,3.869751638E0,-4.807654384E0,-1.855791058E0,6.444569720E0
7.463333000E0,1.510520721E0,-3.113893180E0,-3.293336043E0,4.777453912E0
7.473340000E0,-1.066486454E0,-1.532383314E0,-2.533721334E0,3.147274341E0
7.483347000E0,-3.528074269E0,-5.838474065E-1,-5.237737342E-1,3.614211500E0
7.493353000E0,-5.160882928E0,-4.849370760E-1,1.074416521E0,5.293793292E0
7.503360000E0,-5.086803383E0,-1.424074169E0,2.481102240E0,5.836045256E0
7.513367000E0,-4.895906995E0,-2.581315915E0,4.014230490E0,6.837188280E0
7.523373000E0,-4.326182368E0,-3.865703026E0,4.487719302E0,7.334789588E0
7.533380000E0,-3.320613889E0,-4.671572719E0,3.830833740E0,6.893863606E0
7.543387000E0,-2.289792454E0,-5.117979568E0,1.943021429E0,5.933986570E0
7.553393000E0,-1.282045009E0,-5.293369140E0,1.600932562E-1,5.448763723E0
7.563400000E0,1.083121417E0,-5.095813943E0,6.165596545E-1,5.246009679E0
7.573407000E0,3.604874816E0,-4.911833641E0,1.119643710E0,6.194742464E0
7.583414000E0,4.365961269E0,-4.399474878E0,2.773533189E-1,6.204347014E0
7.593420000E0,3.694139872E0,-3.429656274E0,1.053006356E0,5.149566383E0
7.603427000E0,2.349920249E0,-1.803114077E0,2.236768148E0,3.711667725E0
7.613434000E0,8.576100965E-1,-2.712172508E-2,3.301556936E0,3.411232749E0
7.623440000E0,-7.731952328E-1,1.931225402E0,3.922252618E0,4.439766663E0
7.633447000E0,-1.890410668E0,3.004575391E0,4.393283261E0,5.648191178E0
7.643454000E0,-2.619692068E0,3.504767268E0,4.980701562E0,6.629748727E0
7.653460000E0,-3.360578438E0,4.049446515E0,5.198588698E0,7.397082463E0
7.663467000E0,-3.793394311E0,4.217213073E0,5.339527645E0,7.790075864E0
7.673474000E0,-3.588964542E0,4.215646604E0,5.205489582E0,7.599306847E0
7.683480000E0,-2.934122289E0,4.057873523E0,4.920740705E0,7.020619646E0
7.693487000E0,-2.270420921E0,3.643463808E0,4.551783151E0,6.256865791E0
7.703494000E0,-1.801420577E0,3.210144782E0,4.102763182E0,5.512060535E0
7.713500875E0,-1.965104755E0,3.159341249E0,3.599627232E0,5.176909313E0
7.723506875E0,-2.218142427E0,3.541421708E0,3.535443515E0,5.473681064E0
7.733513875E0,-2.013190502E0,3.525513774E0,3.729259418E0,5.512672598E0
7.743520875E0,-2.446216582E0,3.661289629E0,3.824016472E0,5.831991023E0
7.753526875E0,-2.975575540E0,4.061082475E0,3.850247666E0,6.338047629E0
7.763533875E0,-3.620104181E0,4.401568181E0,3.947303552E0,6.932543694E0
7.773540875E0,-4.144465524E0,4.688348966E0,4.134881938E0,7.500297270E0
7.783546875E0,-4.132222916E0,5.117007176E0,4.224508351E0,7.817000670E0
7.793553875E0,-3.558515459E0,5.418399568E0,4.067124110E0,7.652684802E0
7.803560875E0,-2.592798677E0,5.133770558E0,3.626970274E0,6.799493988E0
7.813566875E0,-1.533366231E0,4.441672479E0,2.921315133E0,5.532969231E0
7.823573875E0,-1.116012663E0,3.823598980E0,1.942585081E0,4.431594546E0
7.833580875E0,-1.177756921E0,3.017387225E0,5.461565468E-1,3.284817195E0
7.843587875E0,-1.242556569E0,1.746268031E0,-1.922199933E0,2.878932344E0
7.853593875E0,-6.992177222E-1,-2.231467062E-1,-6.298347051E0,6.340968022E0
7.863600875E0,-1.521882592E-1,-4.835344459E0,-1.282219665E1,1.370446804E1
7.873607875E0,2.411910529E0,-1.222459835E1,-1.521406570E1,1.966534801E1
7.883613875E0,4.442998043E0,-1.681548592E1,-1.160977532E1,2.091142466E1
7.893620875E0,5.362832893E0,-1.499212294E1,-1.045133898E1,1.904610757E1
7.903627875E0,4.639542841E0,-9.119028679E0,-9.805495890E0,1.417144282E1
7.913633875E0,2.235094382E0,-3.900079976E0,-5.954912009E0,7.461048704E0
7.923640875E0,2.579293802E-1,2.889810920E-2,-1.640499794E0,1.660904043E0
7.933647875E0,-6.026361915E-1,3.558452893E0,1.756902654E0,4.014033422E0
7.943654875E0,-8.434434624E-1,6.168311407E0,3.326512852E0,7.058693239E0
7.953660875E0,-1.333177448E0,7.110024784E0,2.429918930E0,7.631141496E0
7.963667875E0,-2.348347202E0,5.185427785E0,5.524972674E-1,5.719147587E0
7.973674875E0,-3.185537360E0,1.361713030E0,-1.926894370E-1,3.469731959E0
7.983680875E0,-3.775676663E0,-2.848451809E0,2.817907709E-1,4.738018363E0
7.993687875E0,-4.716974302E0,-7.321043780E0,2.158424814E0,8.972531765E0
8.003694875E0,-5.960677949E0,-1.295989741E1,4.234799159E-1,1.427122832E1
8.013700875E0,-4.642601520E0,-1.586051399E1,-7.007937661E-1,1.654088162E1
8.023707875E0,-1.219979080E0,-1.044493044E1,6.789588010E-1,1.053783212E1
8.033714875E0,-1.128155648E0,-1.157866228E0,4.011684904E0,4.325159551E0
8.043721875E0,-2.749806358E0,6.588341466E0,8.766408831E0,1.130564470E1
8.053727875E0,-4.976854094E0,1.124012019E1,8.474770764E0,1.493087801E1
8.063734875E0,-8.044464224E0,1.238832974E1,7.043075334E0,1.636426071E1
8.073741875E0,-8.398505530E0,1.120410251E1,6.752313180E0,1.554543475E1
8.083747875E0,-4.145449610E0,6.507376825E0,6.900736563E0,1.035137048E1
8.093754875E0,-6.891295941E-1,8.928891259E-1,7.900763637E0,7.980865657E0
8.103761875E0,1.208706891E0,-2.014420171E0,8.266940839E0,8.594252255E0
8.113767875E0,3.798147220E0,-4.654555568E0,6.955220919E0,9.190533601E0
8.123774875E0,5.043672566E0,-7.704038744E0,3.884845641E0,9.994141863E0
8.133781875E0,4.864148135E0,-8.742839874E0,1.533617223E0,1.012171764E1
8.143787875E0,3.789743894E0,-6.031820437E0,1.727259318E0,7.329968712E0
8.153794875E0,1.738021118E0,-2.116572198E0,1.842426077E0,3.300777049E0
8.163801875E0,-1.382477370E0,3.780581599E-1,1.255783117E-1,1.438729148E0
8.173808875E0,-3.660782968E0,1.909190755E0,-1.313912627E0,4.332748281E0
8.183814875E0,-4.625824689E0,2.856273045E0,-1.113919140E0,5.549537423E0
8.193821875E0,-4.353754329E0,3.281582555E0,-1.039365971E-1,5.452959163E0
8.203828875E0,-3.850289766E0,3.299752192E0,2.245406824E-1,5.075777214E0
8.213834875E0,-2.932817776E0,2.970583772E0,4.026375157E-1,4.193793631E0
8.223841875E0,-2.329768551E0,2.344190855E0,3.928282267E-1,3.328267760E0
8.233848875E0,-1.591377920E0,1.783120692E0,3.476987950E-1,2.415139238E0
8.243854875E0,-6.020443071E-1,1.260728107E0,8.277709510E-1,1.623914239E0
8.253861875E0,3.873721167E-1,8.368856639E-1,1.059386180E0,1.404540440E0
8.263868875E0,1.085272534E0,6.339200377E-1,6.310987562E-1,1.406398495E0
8.273875875E0,1.781109396E0,5.095637941E-1,3.435999334E-2,1.852886006E0
8.283881875E0,2.339219406E0,1.580888307E-1,-5.570590458E-1,2.409824535E0
8.293888875E0,2.548733183E0,-2.647321039E-1,-8.946462142E-1,2.714132600E0
8.303895875E0,2.582711061E0,-6.491163665E-1,-1.166874449E0,2.907463578E0
8.313901875E0,2.419889201E0,-7.478243834E-1,-1.491486865E0,2.939326134E0
8.323908875E0,2.074868248E0,-5.780136395E-1,-1.768334400E0,2.786787499E0
8.333915875E0,2.069524624E0,-3.319762534E-1,-1.935046119E0,2.852638057E0
8.343922875E0,1.807429322E0,-7.424151242E-2,-1.995735394E0,2.693561271E0
8.353928875E0,1.401921847E0,1.518685627E-1,-1.777772829E0,2.269124315E0
8.363935875E0,1.020842869E0,7.602783680E-2,-1.915623131E0,2.171983511E0
8.373942875E0,1.014491258E0,-2.213697374E-1,-2.706786053E0,2.899118454E0
8.383948875E0,1.542922336E0,-2.286360723E-1,-3.354689707E0,3.699571167E0
8.393955875E0,2.310728117E0,-8.434959412E-2,-3.536747444E0,4.225536862E0
8.403962875E0,2.996730766E0,-2.502976674E-1,-3.153057831E0,4.357157088E0
8.413968875E0,3.288478176E0,-7.214861852E-1,-2.264914305E0,4.057643138E0
8.423975875E0,3.073650303E0,-9.136391401E-1,-1.245478569E0,3.439953420E0
8.433982875E0,2.741092837E0,-5.631149340E-1,-8.717222053E-1,2.930970483E0
8.443988875E0,2.548790486E0,-1.664047408E-1,-1.391435304E0,2.908627801E0
8.453995875E0,2.414484912E0,-1.674209869E-1,-1.987672083E0,3.131869647E0
8.464002875E0,2.367178160E0,-7.384115356E-1,-1.848297559E0,3.092731463E0
8.474009875E0,2.243851757E0,-1.557139841E0,-1.239525518E0,2.999329709E0
8.484015875E0,1.781941309E0,-2.202016391E0,-1.001923033E0,3.004669829E0
8.494022875E0,1.017829726E0,-2.645125995E0,-1.426676180E0,3.173022818E0
8.504029875E0,4.664806321E-1,-2.847943686E0,-2.275197803E0,3.674903055E0
8.514035875E0,4.939716820E-1,-2.930098236E0,-2.968421472E0,4.200120204E0
8.524042875E0,1.138395000E0,-3.191720206E0,-3.357265990E0,4.770142134E0
8.534049875E0,2.139255887E0,-3.482978203E0,-3.840527839E0,5.608672481E0
8.544055875E0,3.047463548E0,-3.492065361E0,-3.933908458E0,6.079242578E0
8.554062875E0,3.524368889E0,-3.174501910E0,-3.483981001E0,5.885300507E0
8.564069875E0,3.622757648E0,-2.841252717E0,-2.872500823E0,5.426633482E0
8.574076875E0,3.473813277E0,-2.799503013E0,-2.356271203E0,5.045454369E0
8.584082875E0,2.945417356E0,-2.662772307E0,-2.330022467E0,4.603785883E0
8.594089875E0,2.159682988E0,-2.216413990E0,-2.952044005E0,4.276831233E0
8.604096875E0,9.514897750E-1,-2.089378552E0,-2.906423444E0,3.703799774E0
8.614102875E0,-7.481407177E-1,-1.981663485E0,-1.192898651E0,2.430989900E0
8.624109875E0,-3.080583055E0,-1.778011980E0,7.318807805E-1,3.631386517E0
8.634116875E0,-5.840030594E0,-2.334307306E0,1.348234613E0,6.432160174E0
8.644123875E0,-7.804600913E0,-3.580990986E0,2.033565710E0,8.824436602E0
8.654129875E0,-8.509325470E0,-4.143416533E0,3.797208742E0,1.019780931E1
8.664136875E0,-8.833047794E0,-4.493604525E0,3.587948588E0,1.053985721E1
8.674143875E0,-8.104371287E0,-5.086882321E0,2.608485003E0,9.917731581E0
8.684149875E0,-6.561116830E0,-5.782410377E0,1.338863134E0,8.847433430E0
8.694156875E0,-4.466963441E0,-5.675612737E0,-5.799414665E-2,7.222859935E0
8.704163875E0,-1.692562232E0,-4.598368503E0,-4.339990568E-1,4.919157954E0
8.714170625E0,1.911002807E0,-3.591175082E0,1.273733777E0,4.262730103E0
8.724177625E0,4.074754727E0,-3.050890601E0,9.074896234E-1,5.170599284E0
8.734184625E0,4.462712515E0,-2.223159923E0,1.486085938E0,5.202566141E0
8.744191625E0,4.174316729E0,-1.248078825E0,2.918793521E0,5.244232692E0
8.754197625E0,2.039083288E0,6.527246833E-2,3.735115112E0,4.255961237E0
8.764204625E0,1.020245576E-1,1.686780798E0,3.923556840E0,4.271994469E0
8.774211625E0,-1.628465201E0,2.944129214E0,4.134642494E0,5.330578233E0
8.784217625E0,-2.881306729E0,4.014471980E0,4.711892487E0,6.827872623E0
8.794224625E0,-3.613811700E0,4.366682523E0,5.351078820E0,7.794972469E0
8.804231625E0,-4.098318713E0,4.230493269E0,5.651338021E0,8.162775937E0
8.814237625E0,-4.150763560E0,4.038339729E0,5.715118865E0,8.136314248E0
8.824244625E0,-4.051398316E0,4.181892382E0,5.418563874E0,7.953796997E0
8.834251625E0,-3.789550059E0,4.134790721E0,4.907403206E0,7.452502276E0
8.844258625E0,-3.311209227E0,4.029095281E0,4.309350573E0,6.765221186E0
8.854264625E0,-3.121063913E0,4.065093080E0,3.640860335E0,6.286643435E0
8.864271625E0,-3.131621938E0,4.234612632E0,3.217153839E0,6.171635030E0
8.874278625E0,-3.150348231E0,4.416574475E0,3.089054208E0,6.242842299E0
8.884284625E0,-3.111424778E0,4.620827658E0,3.173056478E0,6.411029544E0
8.894291625E0,-3.053168676E0,4.902198014E0,3.302782220E0,6.652950829E0
8.904298625E0,-3.230985720E0,4.968162793E0,3.424455176E0,6.844618581E0
8.914304625E0,-3.606241310E0,4.855610324E0,3.498862749E0,6.987415011E0
8.924311625E0,-3.531507170E0,4.748796896E0,3.302829874E0,6.777263462E0
8.934318625E0,-2.882913544E0,3.733912632E0,3.010988909E0,5.596369204E0
8.944325625E0,-2.097329596E0,2.384350117E0,2.923876506E0,4.316592491E0
8.954331625E0,-8.812970209E-1,1.205040395E0,2.664451919E0,3.054195610E0
8.964338625E0,-7.608382389E-2,1.836306381E-1,1.540971705E0,1.553738316E0
8.974345625E0,-3.176991069E-1,-1.285057787E0,-8.898342481E-1,1.595027030E0
8.984351625E0,-1.147058820E0,-2.548886672E0,-4.055403366E0,4.925328788E0
8.994358625E0,-1.612041834E0,-3.850313739E0,-8.313679973E0,9.302734515E0
9.004365625E0,-8.470384768E-1,-5.570907816E0,-1.211634768E1,1.336257344E1
9.014371625E0,4.246688010E-1,-6.611688228E0,-1.245771163E1,1.410990234E1
9.024378625E0,4.397622187E-1,-5.903129067E0,-1.020048408E1,1.179365079E1
9.034385625E0,3.742437288E-2,-3.938466947E0,-7.776373479E0,8.716932199E0
9.044392625E0,2.545513706E-1,-2.269701421E0,-4.892369137E0,5.399223714E0
9.054398625E0,1.056850315E0,-1.483421654E0,-1.771280958E0,2.540651220E0
9.064405625E0,1.630641096E0,-1.045441228E0,3.074267185E-1,1.961236582E0
9.074412625E0,1.383931718E0,-5.838772273E-1,6.513131654E-1,1.637189194E0
9.084418625E0,9.778988707E-1,1.324704248E-1,2.349484339E-1,1.014413812E0
9.094425625E0,7.400986035E-1,1.055482652E0,-4.017490312E-1,1.350256218E0
9.104432625E0,2.760249777E-1,1.550867532E0,-1.501248938E0,2.176034987E0
9.114438625E0,-1.312121771E0,1.391313390E0,-2.645690251E0,3.264520392E0
9.124445625E0,-3.618440356E0,6.342094749E-1,-3.580833988E0,5.130078393E0
9.134452625E0,-5.944962387E0,-1.121492454E0,-3.469789224E0,6.974221130E0
9.144459625E0,-7.350065265E0,-3.857644978E0,-1.924596122E0,8.521088804E0
9.154465625E0,-8.218614771E0,-7.000736815E0,-6.432288051E-1,1.081525256E1
9.164472625E0,-7.605647061E0,-1.004238472E1,-1.510271776E0,1.268764277E1
9.174479625E0,-4.474354614E0,-1.006037660E1,8.796150693E-1,1.104557601E1
9.184485625E0,-1.648697005E0,-4.936548067E0,4.286386803E0,6.742463976E0
9.194492625E0,-4.777792069E-1,1.578659348E0,7.339393512E0,7.522442119E0
9.204499625E0,-4.966665906E-1,6.684463259E0,9.739070351E0,1.182278385E1
9.214506625E0,-2.668483282E0,8.950679739E0,7.908489563E0,1.223845080E1
9.224512625E0,-4.879447375E0,8.549350246E0,4.759188276E0,1.093390458E1
9.234519625E0,-4.764220389E0,6.405922955E0,3.682292243E0,8.791639267E0
9.244526625E0,-3.617319737E0,2.851277184E0,4.028332804E0,6.119007178E0
9.254532625E0,-1.810413887E0,-5.391121137E-1,5.028035942E0,5.371162421E0
9.264539625E0,7.067567566E-1,-2.341442079E0,6.412634389E0,6.863216151E0
9.274546625E0,3.364025956E0,-3.305783011E0,6.646471560E0,8.149874609E0
9.284553625E0,4.953065282E0,-4.278552119E0,4.963854564E0,8.214542961E0
9.294559625E0,4.488870619E0,-5.160477131E0,2.671102835E0,7.342702092E0
9.304566625E0,2.269152075E0,-4.040960451E0,1.274473157E0,4.806526223E0
9.314573625E0,1.246544370E0,-1.793245146E0,1.234513285E0,2.508709643E0
9.324579625E0,-8.262798379E-1,-4.796272194E-1,4.871900082E-1,1.072443352E0
9.334586625E0,-2.479752703E0,1.113930835E0,-6.942668116E-1,2.805712347E0
9.344593625E0,-3.771010292E0,2.303514699E0,-1.281506773E0,4.600973615E0
9.354599625E0,-4.372483546E0,2.790286632E0,-1.166406671E0,5.316466530E0
9.364606625E0,-4.206607978E0,2.515853412E0,-8.812455654E-1,4.980126787E0
9.374613625E0,-3.855765683E0,1.946340455E0,-6.030338752E-1,4.361057214E0
9.384620625E0,-3.271078032E0,1.484556599E0,-1.779616895E-1,3.596599804E0
9.394626625E0,-2.249747651E0,9.032328504E-1,3.215084948E-1,2.445518715E0
9.404633625E0,-1.272214962E0,5.246823549E-1,8.048043305E-1,1.594218459E0
9.414640625E0,-7.292276794E-1,2.809967190E-1,1.231677386E0,1.458684800E0
9.424646625E0,1.269884408E-1,-8.354033947E-2,1.519613726E0,1.527197083E0
9.434653625E0,1.451138299E0,-1.516533852E-2,9.680043586E-1,1.744438245E0
9.444660625E0,2.462279468E0,2.599929357E-1,2.212117164E-1,2.485830069E0
9.454667625E0,3.452189105E0,1.460026360E-1,-2.667325826E-1,3.465555173E0
9.464673625E0,3.879424102E0,-2.344669157E-1,-7.605543566E-1,3.960220831E0
9.474680625E0,3.766851460E0,-5.207401621E-1,-1.335380094E0,4.030332522E0
9.484687625E0,3.215224843E0,-4.272338283E-1,-1.766964251E0,3.693556849E0
9.494693625E0,2.637102738E0,-2.662974036E-1,-1.797276801E0,3.202409883E0
9.504700625E0,2.042245755E0,-1.688874686E-1,-1.752537562E0,2.696419590E0
9.514707625E0,1.551006404E0,-2.402556592E-1,-1.719564674E0,2.328142246E0
9.524713625E0,1.171924250E0,-3.042891026E-1,-1.970149878E0,2.312463805E0
9.534720625E0,9.399005936E-1,-2.852330267E-1,-2.558639828E0,2.740694944E0
9.544727625E0,1.083551626E0,-2.287530166E-1,-3.359593182E0,3.537411259E0
9.554734625E0,1.420454743E0,-3.795924693E-1,-3.869064006E0,4.139014182E0
9.564740625E0,1.551018098E0,-3.599534261E-1,-3.795499893E0,4.115949836E0
9.574747625E0,1.561694676E0,-2.400381428E-1,-3.254152681E0,3.617460192E0
9.584754625E0,1.762852196E0,-2.857955289E-1,-1.786874020E0,2.526310692E0
9.594760625E0,2.025408698E0,-4.404871273E-1,-2.496228987E-1,2.087731039E0
9.604767625E0,2.226247399E0,-4.645402336E-1,-4.912772119E-2,2.274728257E0
9.614774625E0,2.227438915E0,-3.667034519E-1,-1.421787470E0,2.667852161E0
9.624781625E0,1.580450789E0,-3.339262998E-1,-2.794897746E0,3.228124050E0
9.634787625E0,9.224414655E-1,-6.164965045E-1,-2.791193535E0,3.003619075E0
9.644794625E0,4.377871024E-1,-1.156386883E0,-1.758628022E0,2.149804802E0
9.654801625E0,1.898970991E-1,-1.648870960E0,-7.524577171E-1,1.822369053E0
9.664807625E0,1.386401144E-1,-2.013175884E0,-8.613467596E-1,2.194086703E0
9.674814625E0,6.656625615E-2,-2.252520547E0,-1.905829191E0,2.951349655E0
9.684821625E0,4.293346415E-2,-2.200425949E0,-2.876489208E0,3.621865238E0
9.694827625E0,4.385455228E-1,-2.135477416E0,-3.234815939E0,3.900848642E0
9.704834625E0,1.137182288E0,-2.335897164E0,-3.212616985E0,4.131647009E0
9.714841750E0,1.975131268E0,-2.422784450E0,-3.299080932E0,4.544773153E0
9.724848750E0,2.801772610E0,-2.341526279E0,-3.648108836E0,5.161528180E0
9.734854750E0,3.326671019E0,-2.273043689E0,-3.946712691E0,5.640036236E0
9.744861750E0,3.329446108E0,-2.265007276E0,-3.661028844E0,5.442297450E0
9.754868750E0,2.849989042E0,-2.291077087E0,-3.112388692E0,4.801919942E0
9.764874750E0,2.180899464E0,-2.432860372E0,-3.059401224E0,4.476054949E0
9.774881750E0,1.222066975E0,-2.352971619E0,-3.565043875E0,4.442911316E0
9.784888750E0,2.261333178E-1,-1.931498467E0,-4.483762491E0,4.887325310E0
9.794895750E0,-3.054956390E-1,-1.731507905E0,-5.041433668E0,5.339241578E0
9.804901750E0,-4.980330118E-1,-1.566215889E0,-3.634271985E0,3.988609024E0
9.814908750E0,-1.014071793E0,-1.465953097E0,-7.914475358E-1,1.950320304E0
9.824915750E0,-2.395806420E0,-1.710259123E0,1.770056258E0,3.434817874E0
9.834921750E0,-3.905682194E0,-2.488873774E0,3.640115107E0,5.890609820E0
9.844928750E0,-4.614089619E0,-3.995567932E0,5.177573805E0,8.003852611E0
9.854935750E0,-5.266992935E0,-4.443155333E0,5.286177649E0,8.684844157E0
9.864942750E0,-5.354714034E0,-4.656527249E0,3.467996467E0,7.898304115E0
9.874948750E0,-4.639817368E0,-5.202488791E0,1.086728126E0,7.055123872E0
9.884955750E0,-3.659186386E0,-5.156379402E0,-2.154242885E-1,6.326476205E0
9.894962750E0,-1.411435120E0,-4.737303025E0,1.438919373E-1,4.945188969E0
9.904968750E0,6.069781876E-1,-4.377164242E0,5.961471708E-1,4.459078466E0
9.914975750E0,1.447556587E0,-4.364184592E0,4.754771581E-1,4.622510763E0
9.924982750E0,2.087938383E0,-3.860354578E0,1.019979235E0,4.505794247E0
9.934988750E0,2.164040480E0,-2.498335154E0,2.253948729E0,4.000629277E0
9.944995750E0,1.987402819E0,-2.952610016E-2,3.210367269E0,3.775857486E0
9.955002750E0,1.273011207E0,2.241552925E0,3.553240978E0,4.389833538E0
9.965009750E0,7.443651706E-2,3.358837137E0,3.789160927E0,5.064095994E0
9.975015750E0,-8.686006692E-1,4.279173093E0,4.458729684E0,6.240677838E0
9.985022750E0,-1.116255103E0,4.906565300E0,5.068899794E0,7.142419311E0
9.995029750E0,-1.545420851E0,5.050481649E0,5.128793408E0,7.362079348E0
1.000503575E1,-1.639477554E0,4.771411003E0,5.085271997E0,7.163395905E0
1.001504275E1,-1.448273456E0,4.249713067E0,4.929365932E0,6.667548699E0
1.002504975E1,-1.141603221E0,4.083155129E0,4.725012762E0,6.348319409E0
1.003505675E1,-1.157782174E0,4.142131315E0,4.186316093E0,6.001912514E0
1.004506275E1,-1.461481439E0,4.037080824E0,3.775142519E0,5.717136575E0
1.005506975E1,-1.706605783E0,4.056135730E0,3.516928892E0,5.633252097E0
1.006507675E1,-1.962949325E0,3.953967331E0,3.247528955E0,5.480280287E0
1.007508275E1,-2.191725584E0,4.048847176E0,3.182120539E0,5.596670047E0
1.008508975E1,-2.494287127E0,4.430060493E0,3.320049047E0,6.072036719E0
1.009509675E1,-2.734367954E0,4.849864849E0,3.512661594E0,6.583065292E0
1.010510375E1,-2.870695787E0,5.135575594E0,3.533182397E0,6.862828049E0
1.011510975E1,-2.813288409E0,5.217326100E0,3.380660115E0,6.823777995E0
1.012511675E1,-2.293617702E0,5.165403995E0,2.980915510E0,6.389674316E0
1.013512375E1,-1.663836031E0,4.688560050E0,2.377633128E0,5.513989932E0
1.014512975E1,-9.995760340E-1,3.878580349E0,1.615622230E0,4.318885616E0
1.015513675E1,-4.969447719E-1,2.881732991E0,4.884375116E-1,2.964778296E0
1.016514375E1,-5.017448243E-1,1.271851850E0,-1.691984235E0,2.175354143E0
1.017515075E1,-1.040192767E0,-1.130265616E0,-5.708098698E0,5.911166729E0
1.018515675E1,-1.194338455E0,-4.735537165E0,-1.110634993E1,1.213271467E1
1.019516375E1,7.968220040E-2,-8.545217434E0,-1.242726635E1,1.508191099E1
1.020517075E1,1.897385226E0,-1.141414151E1,-9.771119524E0,1.514455262E1
1.021517675E1,2.687711266E0,-1.118684504E1,-9.187170961E0,1.472322669E1
1.022518375E1,2.168973483E0,-8.187589445E0,-8.419371904E0,1.194265005E1
1.023519075E1,1.470110175E0,-3.861641550E0,-5.478039998E0,6.861663181E0
1.024519675E1,7.559731362E-1,-1.124829460E0,-2.546817927E0,2.884964168E0
1.025520375E1,2.734233322E-1,3.041937929E-1,-9.722677097E-1,1.054797934E0
1.026521075E1,7.115777128E-1,1.504672775E0,-3.476655024E-1,1.700368872E0
1.027521775E1,1.507025402E0,2.602748299E0,2.235738453E-1,3.015859668E0
1.028522375E1,1.557672814E0,3.556980565E0,5.443722689E-1,3.921070836E0
1.029523075E1,-3.915968762E-1,4.099553645E0,1.662199688E-1,4.121567333E0
1.030523775E1,-3.190456038E0,3.608931322E0,-7.830354390E-1,4.880219207E0
1.031524375E1,-4.624506142E0,1.860661789E0,-6.494493654E-1,5.026917925E0
1.032525075E1,-5.493268486E0,-6.805784798E-1,8.386243334E-1,5.598435183E0
1.033525775E1,-8.167238796E0,-4.421313643E0,8.049136734E-1,9.322000317E0
1.034526475E1,-1.001836787E1,-9.405492545E0,-1.343160399E0,1.380706575E1
1.035527075E1,-7.558947104E0,-1.159454683E1,-9.631767511E-2,1.384125986E1
1.036527775E1,-3.744487614E0,-8.358056247E0,1.697451674E0,9.314485166E0
1.037528475E1,-4.592735734E-2,-2.194141946E0,4.536688564E0,5.039634047E0
1.038529075E1,7.255467841E-1,2.231422623E0,6.687068778E0,7.086787277E0
1.039529775E1,7.638057008E-2,4.684970444E0,7.091483263E0,8.499642164E0
1.040530475E1,-1.181972398E0,5.860622733E0,7.020590451E0,9.221314865E0
1.041531175E1,-1.908118083E0,5.987957548E0,6.943646940E0,9.365403518E0
1.042531775E1,-2.394325467E0,4.605743596E0,5.945495653E0,7.892692004E0
1.043532475E1,-2.088409669E0,2.262949641E0,5.366001499E0,6.186789806E0
1.044533175E1,-3.239008831E-1,-6.380189359E-2,5.283584994E0,5.293888255E0
1.045533775E1,1.216742866E0,-1.859833823E0,5.058661319E0,5.525350612E0
1.046534475E1,2.742933833E0,-2.654042414E0,5.042180357E0,6.323860364E0
1.047535175E1,4.410906769E0,-2.965130074E0,4.579652735E0,7.015790337E0
1.048535875E1,4.135579803E0,-3.312034269E0,2.924508297E0,6.051887316E0
1.049536475E1,2.522171329E0,-2.849012557E0,1.733782471E0,4.181413926E0
1.050537175E1,8.010834548E-1,-1.532542359E0,1.130129961E0,2.065820542E0
1.051537875E1,-6.995069401E-1,-3.241947788E-1,5.657474966E-1,9.562857543E-1
1.052538475E1,-1.612930172E0,5.593855798E-1,5.360376477E-2,1.708019124E0
1.053539175E1,-2.030474140E0,1.298184786E0,-3.977427384E-1,2.442602763E0
1.054539875E1,-2.322180474E0,1.818823791E0,-5.678300921E-1,3.003843063E0
1.055540575E1,-2.456087559E0,2.043873181E0,-7.978093064E-1,3.293369607E0
1.056541175E1,-2.442682233E0,1.814564095E0,-1.037197824E0,3.214827937E0
1.057541875E1,-2.267064326E0,1.349799328E0,-1.255500696E0,2.921954976E0
1.058542575E1,-1.486667736E0,9.214352328E-1,-1.251376655E0,2.150620231E0
1.059543175E1,-4.598694047E-1,6.312554616E-1,-7.645158452E-1,1.092907958E0
1.060543875E1,7.017473739E-1,7.243361181E-1,-9.076574385E-2,1.012595975E0
1.061544575E1,1.351937801E0,9.539878517E-1,5.846169001E-1,1.754880497E0
1.062545275E1,1.459194885E0,1.071341470E0,9.797705644E-1,2.058390784E0
1.063545875E1,1.484043944E0,1.032365685E0,8.319483481E-1,1.990051102E0
1.064546575E1,1.749202018E0,8.661229116E-1,4.194675565E-1,1.996454264E0
1.065547275E1,2.032012835E0,6.065422046E-1,-6.272132814E-2,2.121533307E0
1.066547875E1,2.252899300E0,2.083029646E-1,-5.066092692E-1,2.318533660E0
1.067548575E1,2.367690230E0,-1.153877842E-1,-9.271861155E-1,2.545377272E0
1.068549275E1,2.497290841E0,-2.507894182E-1,-1.159583555E0,2.764776827E0
1.069549975E1,2.599617700E0,-2.420337975E-1,-1.410802013E0,2.967651406E0
1.070550575E1,2.628054172E0,-1.671204400E-1,-1.710094231E0,3.139907682E0
1.071551237E1,2.660388105E0,-1.239785135E-2,-1.909847397E0,3.274955825E0
1.072551938E1,2.679535397E0,1.206631422E-1,-1.960003644E0,3.322060177E0
1.073552537E1,2.508533868E0,1.176477331E-1,-2.256717678E0,3.376293505E0
1.074553238E1,2.596552005E0,3.374486625E-2,-2.517616932E0,3.616851676E0
1.075553938E1,2.931327320E0,-1.169489908E-1,-2.482711394E0,3.843203454E0
1.076554638E1,2.939563708E0,-4.107107663E-1,-2.426869315E0,3.833981325E0
1.077555238E1,2.788067613E0,-6.593682897E-1,-2.360080079E0,3.711881671E0
1.078555938E1,2.399597609E0,-9.792624414E-1,-2.399529050E0,3.531963091E0
1.079556638E1,1.893986532E0,-1.410819701E0,-2.478085954E0,3.423230522E0
1.080557238E1,8.943586043E-1,-1.496075613E0,-2.723634220E0,3.233620714E0
1.081557938E1,1.832577319E-1,-1.243139098E0,-2.792498049E0,3.062192607E0
1.082558637E1,1.603669790E-1,-9.520243567E-1,-2.826795769E0,2.987112697E0
1.083559337E1,8.600528439E-1,-7.735193878E-1,-2.644811999E0,2.886702903E0
1.084559937E1,1.880044431E0,-7.370883107E-1,-2.248997892E0,3.022558148E0
1.085560637E1,2.698142407E0,-8.197299331E-1,-1.817849645E0,3.355071824E0
1.086561337E1,2.909876225E0,-1.015114059E0,-1.505114093E0,3.429752853E0
1.087561937E1,2.734193707E0,-1.345712709E0,-1.693314038E0,3.486268830E0
1.088562637E1,2.388817243E0,-1.766904609E0,-1.963435813E0,3.561387358E0
1.089563337E1,2.379342708E0,-2.366055933E0,-1.915087233E0,3.863554259E0
1.090564037E1,2.881287434E0,-3.164308459E0,-2.105639074E0,4.769526308E0
1.091564637E1,3.765370068E0,-3.969067181E0,-2.673063114E0,6.089069916E0
1.092565337E1,4.663065605E0,-4.402437077E0,-3.245539148E0,7.187430516E0
1.093566037E1,5.111262871E0,-3.939506582E0,-3.286165602E0,7.241795676E0
1.094566637E1,5.248155545E0,-2.822632259E0,-2.489431599E0,6.458146730E0
1.095567337E1,5.281325630E0,-2.068097611E0,-1.258190416E0,5.809687708E0
1.096568037E1,4.750294953E0,-1.570149311E0,-1.116902390E0,5.126221020E0
1.097568738E1,3.860606008E0,-8.992117202E-1,-2.258451378E0,4.562177451E0
1.098569337E1,2.708073610E0,-4.781203920E-1,-1.947453765E0,3.369694044E0
1.099570038E1,1.418013969E0,-3.760847247E-1,5.062203562E-1,1.551922158E0
1.100570738E1,5.188599899E-3,-1.144163863E0,3.095769736E0,3.300443625E0
1.101571338E1,-1.388954330E0,-2.794668535E0,4.633220247E0,5.586241689E0
1.102572038E1,-2.238652706E0,-4.595154288E0,5.681362889E0,7.642309412E0
1.103572738E1,-2.418624156E0,-5.596454886E0,5.441038817E0,8.171594306E0
1.104573438E1,-1.716624548E0,-5.998644505E0,3.865336990E0,7.339711560E0
1.105574038E1,-1.099066262E0,-6.551385893E0,1.235601744E0,6.756871720E0
1.106574738E1,1.036766701E-1,-6.670478473E0,3.822181615E-1,6.682224378E0
1.107575437E1,2.350517250E0,-6.029116099E0,1.516036546E0,6.646317709E0
1.108576038E1,2.906927767E0,-5.501196141E0,1.989376547E0,6.532304882E0
1.109576737E1,2.470401251E0,-4.948595670E0,2.359635398E0,6.013265391E0
1.110577437E1,2.147692542E0,-3.935616429E0,3.008035773E0,5.399068359E0
1.111578137E1,1.640821098E0,-1.854896434E0,4.155624350E0,4.837576707E0
1.112578737E1,9.733033247E-1,1.921459383E-1,4.225130495E0,4.340042295E0
1.113579437E1,-1.310590531E-1,1.874241947E0,4.247343483E0,4.644339136E0
1.114580137E1,-6.445015977E-1,2.701474442E0,4.402101155E0,5.204982329E0
1.115580737E1,-1.160873890E0,3.140037836E0,4.444337932E0,5.564135643E0
1.116581437E1,-1.717840038E0,3.407136893E0,4.649849728E0,6.015036051E0
1.117582137E1,-2.246940988E0,3.707147588E0,4.759933796E0,6.438063123E0
1.118582837E1,-2.629749279E0,3.831555871E0,4.768751982E0,6.658633278E0
1.119583437E1,-2.710759236E0,3.875226386E0,4.821930069E0,6.754006572E0
1.120584137E1,-2.547861948E0,3.687575203E0,4.795544216E0,6.564073103E0
1.121584837E1,-2.370739261E0,3.509770730E0,4.651754166E0,6.291081946E0
1.122585437E1,-2.366674569E0,3.467331054E0,4.638791766E0,6.256350550E0
1.123586137E1,-2.482534808E0,3.478008070E0,4.703164933E0,6.354469261E0
1.124586838E1,-2.597226774E0,3.622727827E0,4.703157039E0,6.479925151E0
1.125587538E1,-2.779855491E0,3.770718516E0,4.564582706E0,6.540743838E0
1.126588138E1,-3.130627327E0,3.809708920E0,4.363061342E0,6.584148676E0
1.127588838E1,-3.580132030E0,3.899198801E0,4.183326704E0,6.746948863E0
1.128589538E1,-4.068224849E0,4.130870748E0,3.992231510E0,7.039350750E0
1.129590238E1,-4.292309448E0,4.521420314E0,3.701623431E0,7.250460543E0
1.130590838E1,-3.899712186E0,4.554709682E0,3.282924783E0,6.835987899E0
1.131591538E1,-3.230943621E0,4.282847484E0,2.734160086E0,6.021412677E0
1.132592238E1,-2.562229434E0,3.736110016E0,1.673951130E0,4.829663560E0
1.133592838E1,-1.982481949E0,2.731228584E0,3.243123078E-1,3.390431053E0
1.134593537E1,-8.677310421E-1,1.559950013E0,-1.292439604E0,2.203815177E0
1.135594237E1,1.417935178E-1,-4.739676994E-1,-3.839632338E0,3.871372789E0
1.136594937E1,1.910068861E0,-3.053575058E0,-7.359408531E0,8.193508261E0
1.137595537E1,3.226445942E0,-7.470700341E0,-1.141913036E1,1.402204889E1
1.138596237E1,5.480968868E0,-1.150193395E1,-1.253779861E1,1.787545519E1
1.139596937E1,6.491560106E0,-1.200719185E1,-1.059765620E1,1.728072122E1
1.140597537E1,6.436278775E0,-9.342326244E0,-8.015368479E0,1.389067586E1
1.141598237E1,4.622441490E0,-5.143043658E0,-4.979940255E0,8.521600104E0
1.142598937E1,2.811978632E0,-1.083379133E0,-1.387380552E0,3.317492874E0
1.143599637E1,1.632076295E0,2.230229791E0,1.365522198E0,3.082571788E0
1.144600237E1,7.608768305E-1,4.528270912E0,2.260454049E0,5.117990183E0
1.145600937E1,-1.373136735E-1,5.429160199E0,2.167989689E0,5.847633265E0
1.146601637E1,-1.770806895E0,4.295571610E0,1.785380641E0,4.977476926E0
1.147602237E1,-2.864967855E0,2.068912713E0,1.503910590E0,3.840597308E0
1.148602937E1,-3.528185074E0,-2.711260343E-1,2.120055092E0,4.125073677E0
1.149603637E1,-6.394737232E0,-3.808167593E0,4.970703408E-1,7.459348739E0
1.150604338E1,-7.217656821E0,-8.486829477E0,-1.331130338E0,1.122019396E1
1.151604938E1,-5.369163673E0,-1.175919507E1,6.450148371E-1,1.294305340E1
1.152605638E1,-2.761736432E0,-1.037095848E1,6.116971099E-1,1.074979727E1
1.153606338E1,-5.179270667E-1,-3.917424572E0,3.953404244E0,5.589621529E0
1.154606938E1,-2.944512353E-1,2.314365377E0,8.410371870E0,8.727963314E0
1.155607638E1,-1.333211069E0,5.652426188E0,8.313567706E0,1.014114301E1
1.156608338E1,-3.391146220E0,6.983730188E0,7.919387019E0,1.109004287E1
1.157609038E1,-5.131487221E0,6.657908129E0,6.439177240E0,1.058881038E1
1.158609638E1,-5.141301772E0,4.365218380E0,4.061988208E0,7.873237175E0
1.159610338E1,-3.090890234E0,1.475696898E0,3.608958803E0,4.975526848E0
1.160611037E1,-1.054941419E0,-6.630912119E-1,4.457309103E0,4.628195738E0
1.161611637E1,7.225607572E-1,-1.710455589E0,5.206140962E0,5.527355252E0
1.162612337E1,2.800300281E0,-2.178990056E0,5.206512845E0,6.300591665E0
1.163613037E1,4.058265871E0,-2.777269560E0,4.497927371E0,6.664390349E0
1.164613737E1,4.024789099E0,-3.260926096E0,3.760053195E0,6.400825441E0
1.165614337E1,2.584472827E0,-2.782040888E0,2.817900692E0,4.728616669E0
1.166615037E1,1.112697437E0,-1.531146044E0,1.636383061E0,2.502049823E0
1.167615737E1,-7.235392157E-2,-1.347058153E-1,6.249948478E-1,6.434277787E-1
1.168616437E1,-1.124314759E0,1.109319720E0,-7.590504527E-2,1.581276539E0
1.169617037E1,-1.464091198E0,1.864705138E0,-2.065294310E-1,2.379777866E0
1.170617737E1,-1.766287728E0,2.323788750E0,-5.223925487E-1,2.965242059E0
1.171618396E1,-1.562798630E0,2.177699575E0,-6.182237720E-1,2.750802725E0
1.172618996E1,-1.274780574E0,1.673164387E0,-5.600837374E-1,2.176749497E0
1.173619696E1,-9.876241060E-1,1.402253530E0,-5.453160095E-1,1.799746062E0
1.174620396E1,-3.799992894E-1,1.261105837E0,-3.825178313E-1,1.371534646E0
1.175621096E1,5.880873688E-2,1.319934674E0,-1.641839683E-2,1.321346122E0
1.176621696E1,3.278291157E-1,1.299320315E0,4.646857927E-1,1.418322282E0
1.177622396E1,4.254940989E-1,1.134134134E0,4.494269353E-1,1.292010074E0
1.178623096E1,6.327006009E-1,6.545186090E-1,-1.157912421E-1,9.176667542E-1
1.179623696E1,1.151186077E0,-4.343545675E-2,-5.886953330E-1,1.293707161E0
1.180624396E1,1.752489907E0,-6.119169652E-1,-8.484369115E-1,2.040957726E0
1.181625096E1,2.157948558E0,-7.897582752E-1,-1.156450106E0,2.572515687E0
1.182625796E1,2.205055628E0,-4.321887589E-1,-1.007672235E0,2.462612592E0
1.183626396E1,1.887022060E0,8.340176046E-2,-6.181018576E-2,1.889875289E0
1.184627096E1,1.627916878E0,1.031314355E-1,6.546226895E-1,1.757634865E0
1.185627796E1,1.867157899E0,-3.029132527E-1,3.518795907E-2,1.891896734E0
1.186628496E1,2.630588062E0,-6.431428510E-1,-1.503116977E0,3.097254740E0
1.187629096E1,3.659940092E0,-5.122763175E-1,-2.972328581E0,4.742607479E0
1.188629796E1,4.537553367E0,-1.502646714E-1,-3.762330685E0,5.896363474E0
1.189630496E1,5.136467879E0,-1.232142824E-1,-3.289506701E0,6.100765392E0
1.190631096E1,4.989321527E0,-6.886376971E-1,-2.097878796E0,5.456065123E0
1.191631796E1,3.884111230E0,-1.315082654E0,-1.373544871E0,4.324625758E0
1.192632496E1,2.123124880E0,-1.567393518E0,-1.611934683E0,3.092364002E0
1.193633196E1,5.249444564E-1,-1.558406348E0,-2.349338013E0,2.867679572E0
1.194633796E1,-3.678268482E-1,-1.480288716E0,-3.038827795E0,3.400150826E0
1.195634496E1,7.235914752E-2,-1.325839777E0,-3.098282869E0,3.370822406E0
1.196635196E1,1.567772710E0,-1.613859587E0,-2.338311918E0,3.245020287E0
1.197635796E1,2.662783417E0,-1.900515241E0,-1.641919644E0,3.660365258E0
1.198636496E1,3.306335573E0,-1.874377602E0,-1.308426038E0,4.019592642E0
1.199637196E1,3.589506286E0,-1.798470803E0,-1.217155387E0,4.195297349E0
1.200637896E1,3.972581942E0,-2.240250165E0,-9.837501794E-1,4.665607410E0
1.201638496E1,3.845381905E0,-3.041398816E0,-7.368748873E-1,4.957827483E0
1.202639196E1,4.049778930E0,-3.930751546E0,-8.136343570E-1,5.702062606E0
1.203639896E1,4.568937128E0,-4.578381550E0,-1.362489540E0,6.610078808E0
1.204640596E1,5.015145755E0,-4.738975913E0,-1.932608707E0,7.165511571E0
1.205641196E1,5.493378414E0,-4.542383752E0,-2.161165550E0,7.448563156E0
1.206641896E1,5.852406811E0,-4.207536516E0,-2.134116769E0,7.517212475E0
1.207642596E1,5.649754010E0,-3.343259570E0,-1.717889155E0,6.785885946E0
1.208643196E1,4.888896768E0,-2.137903426E0,-1.073062890E0,5.442738891E0
1.209643896E1,3.906678852E0,-1.334855014E0,1.609117202E-3,4.128435557E0
1.210644596E1,2.503014096E0,-7.155214405E-1,-3.920763478E-1,2.632636389E0
1.211645296E1,5.019149052E-1,4.017914236E-2,-1.418365533E0,1.505089273E0
1.212645896E1,-1.277988357E0,1.411102706E-1,-1.155642532E0,1.728778763E0
1.213646596E1,-2.474256905E0,-4.819614279E-1,6.324873968E-1,2.598898681E0
1.214647296E1,-3.646131600E0,-1.045685057E0,2.592724417E0,4.594556865E0
1.215647896E1,-4.374687361E0,-2.395778500E0,3.946136155E0,6.360002727E0
1.216648596E1,-4.249348201E0,-3.916016563E0,4.664956595E0,7.426571610E0
1.217649296E1,-4.020763584E0,-4.784609338E0,4.013886673E0,7.427672081E0
1.218649996E1,-3.258068854E0,-5.443083004E0,2.074308085E0,6.674198025E0
1.219650596E1,-1.968634426E0,-5.555396322E0,5.121365690E-1,5.916099531E0
1.220651296E1,1.921124995E-1,-5.304671223E0,9.098586228E-1,5.385562804E0
1.221651996E1,1.679388894E0,-4.523085601E0,1.561210088E0,5.071097253E0
1.222652696E1,2.854153722E0,-3.679736425E0,2.159448076E0,5.133212408E0
1.223653296E1,3.360442198E0,-2.959712044E0,2.664695748E0,5.210860829E0
1.224653996E1,2.930030116E0,-1.756465575E0,3.293691261E0,4.745381957E0
1.225654696E1,2.387265246E0,-1.475082940E-1,4.465380892E0,5.065611568E0
1.226655296E1,1.142006314E0,1.176021248E0,4.874941511E0,5.143175977E0
1.227655996E1,-1.312882639E-1,1.873087707E0,4.756778638E0,5.113964917E0
1.228656696E1,-5.869717931E-1,2.436233046E0,4.904644782E0,5.507749792E0
1.229657396E1,-1.607872476E0,2.666697543E0,4.999737173E0,5.890152925E0
1.230657996E1,-2.590200759E0,2.661554917E0,5.080408283E0,6.293136172E0
1.231658696E1,-2.887226158E0,2.673631171E0,5.059094013E0,6.409275369E0
1.232659396E1,-2.719065498E0,2.463207421E0,4.794676489E0,6.037352948E0
1.233659996E1,-2.599460118E0,2.303252159E0,4.486224169E0,5.673479594E0
1.234660696E1,-2.358522673E0,2.138662979E0,4.275998640E0,5.331104286E0
1.235661396E1,-2.282523195E0,2.052267444E0,4.121843231E0,5.139193071E0
1.236662096E1,-2.581346905E0,2.504893391E0,4.014906428E0,5.390483872E0
1.237662696E1,-2.871729575E0,3.140534264E0,4.020097586E0,5.854141339E0
1.238663396E1,-3.296048274E0,3.731519367E0,4.055066274E0,6.421194087E0
1.239664096E1,-3.621410157E0,4.343237527E0,4.000274648E0,6.926797312E0
1.240664796E1,-4.016567622E0,4.618362472E0,4.017168131E0,7.321183455E0
1.241665396E1,-4.275371819E0,4.853221151E0,3.982550568E0,7.595608518E0
1.242666096E1,-3.932345497E0,5.252373142E0,3.814550706E0,7.589569278E0
1.243666796E1,-3.265089898E0,5.235785176E0,3.660268998E0,7.174386913E0
1.244667396E1,-2.362877972E0,4.774936289E0,3.195155152E0,6.212264106E0
1.245668096E1,-2.050108944E0,4.002579328E0,2.229838028E0,5.019538384E0
1.246668796E1,-1.735253923E0,3.048854601E0,8.775267363E-1,3.616168377E0
1.247669496E1,-1.454104300E0,1.997377292E0,-6.159340024E-1,2.546234486E0
1.248670096E1,-9.764310734E-1,4.267987955E-1,-2.743165382E0,2.942878042E0
1.249670796E1,1.796959736E-1,-1.697818587E0,-6.008582432E0,6.246434298E0
1.250671496E1,2.053805700E0,-4.530909761E0,-9.023133173E0,1.030360099E1
1.251672096E1,3.610991588E0,-7.381644323E0,-1.023258763E1,1.312378691E1
1.252672796E1,4.777459655E0,-1.068626608E1,-1.011537201E1,1.547065462E1
1.253673496E1,5.447588283E0,-1.071432219E1,-7.788727477E0,1.432261127E1
1.254674196E1,4.780721232E0,-7.830836785E0,-5.349897097E0,1.062067320E1
1.255674796E1,3.531905073E0,-4.492332171E0,-3.507554928E0,6.705098310E0
1.256675496E1,2.404962868E0,-1.573559407E0,-1.742811742E0,3.361149858E0
1.257676196E1,1.597138596E0,1.060065114E0,-6.785977355E-1,2.033490750E0
1.258676896E1,1.425197420E0,3.258890095E0,-2.823436251E-1,3.568090562E0
1.259677496E1,1.462809342E0,4.848149276E0,1.330916914E-1,5.065774963E0
1.260678196E1,6.631511459E-1,5.139989657E0,5.545654276E-1,5.212178616E0
1.261678896E1,-1.060728408E0,3.756109248E0,5.653091016E-1,3.943738812E0
1.262679596E1,-2.727096941E0,1.824899633E0,1.551412493E-2,3.281395600E0
1.263680196E1,-3.984740642E0,-3.996992898E-1,7.005978844E-1,4.065557146E0
1.264680896E1,-5.036796826E0,-3.413187007E0,1.956908420E0,6.391295516E0
1.265681596E1,-6.266919436E0,-7.334066114E0,1.329272970E0,9.738057897E0
1.266682196E1,-6.246154804E0,-1.151091761E1,-4.027296093E-1,1.310259002E1
1.267682896E1,-4.604646951E0,-1.096224530E1,1.300166992E0,1.196093766E1
1.268683596E1,-3.561185005E0,-4.601917178E0,8.903765774E-1,5.886633232E0
1.269684296E1,-3.886247803E0,1.891943808E0,3.777810312E0,5.740576984E0
1.270684896E1,-4.040071090E0,6.247868038E0,7.387102114E0,1.048462241E1
1.271685608E1,-4.743509844E0,7.942771788E0,7.789632626E0,1.209408474E1
1.272686308E1,-5.143533654E0,8.020804051E0,6.852490017E0,1.173651803E1
1.273687008E1,-4.085264804E0,5.441079748E0,6.610894176E0,9.486762311E0
1.274687608E1,-2.063688518E0,1.304986852E0,6.963070221E0,7.378763303E0
1.275688308E1,4.877723908E-1,-1.509794936E0,7.610035397E0,7.773676183E0
1.276689008E1,2.234134854E0,-3.137589022E0,7.012846398E0,8.000989815E0
1.277689608E1,3.782107723E0,-4.127424983E0,5.219246911E0,7.653790834E0
1.278690308E1,4.956746689E0,-4.625839307E0,3.159490353E0,7.479980369E0
1.279691008E1,4.346639437E0,-4.129796614E0,2.054820046E0,6.338042276E0
1.280691708E1,3.285744603E0,-2.564022775E0,1.995036067E0,4.620660049E0
1.281692308E1,1.568157164E0,-9.813428807E-1,1.254396157E0,2.235097417E0
1.282693008E1,-2.706895031E-1,4.160516131E-1,4.378738604E-2,4.982861497E-1
1.283693708E1,-7.931469559E-1,1.491432340E0,-4.520249263E-1,1.748650637E0
1.284694308E1,-1.380169327E0,2.424117615E0,-5.579109120E-1,2.844728136E0
1.285695008E1,-1.622263205E0,3.067121302E0,-2.695332893E-1,3.480175166E0
1.286695708E1,-1.927327795E0,3.108055905E0,-3.298940599E-1,3.671979579E0
1.287696408E1,-1.981517597E0,2.746887428E0,-5.399178600E-1,3.429768771E0
1.288697008E1,-1.674837275E0,1.894437060E0,-6.956040698E-1,2.622563001E0
1.289697708E1,-1.008016855E0,1.069739918E0,-7.269457304E-1,1.639784000E0
1.290698408E1,-2.272188534E-1,5.769014990E-1,-4.731239462E-1,7.799294939E-1
1.291699108E1,4.550578405E-1,2.265924704E-1,-1.527146731E-1,5.307952122E-1
1.292699708E1,9.878900812E-1,-4.430201411E-2,-9.904013872E-2,9.938301817E-1
1.293700408E1,1.239633984E0,-1.568071210E-1,-1.823927826E-1,1.262754139E0
1.294701108E1,1.552299662E0,-2.655320030E-1,-2.529487950E-1,1.595031215E0
1.295701708E1,1.931085069E0,-3.512860984E-1,-3.760408705E-1,1.998473969E0
1.296702408E1,2.151374241E0,-3.384754336E-1,-3.886071583E-1,2.212236938E0
1.297703108E1,2.125014262E0,-1.964711237E-1,-1.232796981E-1,2.137635236E0
1.298703808E1,1.976079978E0,4.938558340E-3,3.464780060E-1,2.006231163E0
1.299704408E1,1.941765155E0,3.295397186E-1,5.808530474E-1,2.053396845E0
1.300705108E1,1.826338340E0,6.408624369E-1,9.973493412E-2,1.938082417E0
1.301705808E1,2.230536916E0,9.320830125E-1,-5.712684377E-1,2.484033274E0
1.302706508E1,2.878258868E0,1.027925309E0,-1.189361817E0,3.279571021E0
1.303707108E1,3.096189273E0,9.365730894E-1,-1.707388579E0,3.657695029E0
1.304707808E1,3.032215179E0,5.470514631E-1,-1.814591576E0,3.575798762E0
1.305708508E1,2.733974729E0,-5.629699230E-2,-1.787038765E0,3.266694770E0
1.306709208E1,2.318594961E0,-7.470502120E-1,-1.968824168E0,3.132129502E0
1.307709808E1,1.880283875E0,-1.360526045E0,-2.083765956E0,3.119067029E0
1.308710508E1,1.241242407E0,-1.916184025E0,-2.193584121E0,3.166110426E0
1.309711208E1,4.305215715E-1,-2.073848348E0,-2.344689623E0,3.159709673E0
1.310711808E1,-1.456146732E-1,-1.839827574E0,-2.563129320E0,3.158449152E0
1.311712508E1,-2.771409188E-1,-1.509746404E0,-2.703066055E0,3.108489567E0
1.312713208E1,4.106452775E-1,-1.453356441E0,-2.395065724E0,2.831468579E0
1.313713908E1,1.540737378E0,-1.713742309E0,-1.751095346E0,2.894325358E0
1.314714508E1,2.534232673E0,-1.916169407E0,-1.370977212E0,3.460291744E0
1.315715208E1,3.164930602E0,-1.959090893E0,-1.336400433E0,3.954843734E0
1.316715908E1,3.407613441E0,-1.966889325E0,-1.369577535E0,4.166080364E0
1.317716608E1,3.738102747E0,-2.196596022E0,-1.471936699E0,4.578760081E0
1.318717208E1,4.427816624E0,-2.754466004E0,-1.424517388E0,5.405727778E0
1.319717908E1,5.276409291E0,-3.437833605E0,-1.293401617E0,6.429003239E0
1.320718608E1,5.902144396E0,-3.897368038E0,-1.562608303E0,7.243378411E0
1.321719208E1,6.428693767E0,-3.967041121E0,-1.877523989E0,7.783997375E0
1.322719908E1,6.853650105E0,-3.606230493E0,-1.964382185E0,7.989756911E0
1.323720608E1,6.864404889E0,-3.307562903E0,-1.841225644E0,7.839013886E0
1.324721308E1,6.254856046E0,-3.009182412E0,-1.587471833E0,7.120285792E0
1.325721908E1,4.980512697E0,-2.513693451E0,-1.452418109E0,5.764865987E0
1.326722608E1,3.626658618E0,-2.103974372E0,-1.038420038E0,4.319453329E0
1.327723308E1,2.422918497E0,-1.766572487E0,-5.681049478E-1,3.051893778E0
1.328724008E1,1.109736334E0,-1.008597922E0,-1.458147649E0,2.091645063E0
1.329724608E1,-1.020854417E-1,-4.409502268E-2,-1.881995355E0,1.885277784E0
1.330725308E1,-8.979808082E-1,1.110152364E-1,-9.345698333E-1,1.300813087E0
1.331726008E1,-1.744348244E0,-5.214371502E-1,8.448068869E-1,2.007074033E0
1.332726608E1,-2.907029508E0,-1.204321772E0,2.693837979E0,4.142218554E0
1.333727308E1,-3.613337198E0,-2.449892142E0,4.295515476E0,6.124510627E0
1.334728008E1,-3.353135225E0,-3.870074989E0,5.013070579E0,7.166022110E0
1.335728708E1,-2.865641162E0,-4.495231220E0,4.670125533E0,7.087247384E0
1.336729308E1,-2.333686186E0,-5.027980978E0,2.647301159E0,6.142872891E0
1.337730008E1,-1.744204841E0,-5.534648647E0,8.316249239E-1,5.862268007E0
1.338730708E1,-9.700543558E-2,-5.575841112E0,7.849509868E-1,5.631657146E0
1.339731408E1,1.210130688E0,-4.910598124E0,1.679691049E0,5.329141792E0
1.340732008E1,2.599152846E0,-4.496909956E0,2.398414717E0,5.721030311E0
1.341732708E1,2.453289666E0,-3.684844553E0,2.910739274E0,5.298029132E0
1.342733408E1,1.205493188E0,-1.853265646E0,6.812733044E0,7.162481337E0
1.343734008E1,-1.836906452E-1,2.514448911E-1,5.458762897E0,5.467637438E0
1.344734708E1,2.195117700E0,4.680742908E-1,-1.749235201E0,2.845603459E0
1.345735408E1,-5.712605439E-1,-1.873120451E-1,1.647678420E0,1.753929471E0
1.346736108E1,-1.458448342E0,1.471148348E0,7.668823303E0,7.943689312E0
1.347736708E1,-9.818447180E-1,2.767126395E0,6.537332110E0,7.166429980E0
1.348737408E1,-1.923108736E0,3.253933411E0,5.250445315E0,6.469436286E0
1.349738108E1,-1.788237591E0,3.345091503E0,4.813805071E0,6.128633624E0
1.350738808E1,-1.286299881E0,3.198174362E0,4.545176382E0,5.704517068E0
1.351739408E1,-1.274183720E0,2.824368882E0,4.379859223E0,5.365050843E0
1.352740108E1,-1.722381424E0,2.663678041E0,4.436681880E0,5.453982451E0
1.353740808E1,-2.329325186E0,2.808442821E0,4.612515256E0,5.881190687E0
1.354741508E1,-3.082193086E0,3.046577695E0,4.819306131E0,6.481300907E0
1.355742108E1,-3.460216455E0,3.356012347E0,5.028604292E0,6.965829305E0
1.356742808E1,-4.065810533E0,3.788289399E0,4.890758522E0,7.402801549E0
1.357743508E1,-4.488185618E0,4.168035066E0,4.611486731E0,7.666950914E0
1.358744108E1,-4.818983072E0,4.415071741E0,4.375468549E0,7.865124370E0
1.359744808E1,-4.743084751E0,4.917707754E0,4.150177084E0,7.994039801E0
1.360745508E1,-4.227102761E0,5.455259830E0,3.973915692E0,7.963684040E0
1.361746208E1,-3.366869165E0,5.673877868E0,3.668305119E0,7.548851600E0
1.362746808E1,-2.576715326E0,5.480476533E0,3.174867361E0,6.837753114E0
1.363747508E1,-2.164952938E0,5.004435995E0,2.133701909E0,5.855261283E0
1.364748208E1,-1.571234554E0,4.318388615E0,6.620869526E-1,4.642802751E0
1.365748908E1,-8.697633149E-1,3.329994577E0,-9.539697254E-1,3.571471733E0
1.366749508E1,-2.343447820E-1,1.207309114E0,-3.501814716E0,3.711498226E0
1.367750208E1,7.218780948E-1,-2.485052034E0,-7.175108972E0,7.627501580E0
1.368750908E1,2.724627370E0,-7.316191176E0,-9.933812453E0,1.263451137E1
1.369751508E1,4.301260951E0,-1.161828886E1,-1.073129198E1,1.639042737E1
1.370752208E1,3.638999751E0,-1.534377800E1,-1.071216807E1,1.906369291E1
1.371752958E1,4.464249748E0,-1.351373749E1,-8.365168215E0,1.650838169E1
1.372753658E1,4.081767000E0,-7.557809821E0,-5.113043933E0,9.996225757E0
1.373754258E1,2.161718550E0,-2.765662252E0,-2.451822015E0,4.281745670E0
1.374754958E1,8.311887947E-1,7.697900337E-1,-3.351004207E-1,1.181416015E0
1.375755658E1,4.366845368E-1,3.473793982E0,6.403125063E-1,3.559204703E0
1.376756358E1,3.835242102E-1,5.621851682E0,1.202825762E0,5.761865754E0
1.377756958E1,-3.364558784E-1,7.371926835E0,1.249325159E0,7.484605613E0
1.378757658E1,-2.086809286E0,7.437823201E0,7.785403919E-1,7.764155596E0
1.379758358E1,-2.730101241E0,5.059617923E0,1.239878690E0,5.881367654E0
1.380759058E1,-3.318796574E0,2.341066103E0,2.898645770E0,4.989704250E0
1.381759658E1,-4.805904313E0,-7.883613753E-1,4.172576306E0,6.413160137E0
1.382760358E1,-6.239308884E0,-5.651156757E0,1.546180697E0,8.558926498E0
1.383761058E1,-5.526861325E0,-1.095739913E1,-4.873274177E-2,1.227245561E1
1.384761658E1,-2.998271800E0,-1.328674975E1,-5.310333082E-1,1.363119030E1
1.385762358E1,-2.061816678E-1,-9.838791690E0,-3.557881621E-1,9.847381277E0
1.386763058E1,9.261947932E-1,-2.794624096E0,3.249259146E0,4.384683071E0
1.387763758E1,9.788539403E-1,2.128701662E0,7.006261264E0,7.387639860E0
1.388764358E1,2.934502651E-1,5.204696699E0,8.695753416E0,1.013859498E1
1.389765058E1,-1.854222835E0,6.785804277E0,8.076589411E0,1.071058255E1
1.390765758E1,-3.303279818E0,5.922564043E0,6.050144441E0,9.088050955E0
1.391766458E1,-2.251830283E0,3.686416284E0,4.253564335E0,6.062442924E0
1.392767058E1,-8.528109942E-1,1.872003048E0,4.193489749E0,4.670871255E0
1.393767758E1,-8.898848265E-2,2.454362923E-1,4.403905313E0,4.411636876E0
1.394768458E1,1.271985898E0,-6.414383876E-1,4.525263104E0,4.744196190E0
1.395769058E1,2.961230858E0,-1.641495282E0,4.625084431E0,5.731910759E0
1.396769758E1,3.229379490E0,-2.879842587E0,3.775930724E0,5.742824919E0
1.397770458E1,2.674215893E0,-3.335939441E0,2.626694402E0,5.017912521E0
1.398771158E1,2.058712830E0,-2.787631411E0,1.305825927E0,3.703291610E0
1.399771758E1,1.352829794E0,-1.404511140E0,4.482534722E-1,2.000932575E0
1.400772458E1,2.570582547E-1,2.407228518E-1,-3.683036886E-2,3.540944983E-1
1.401773158E1,-7.277568854E-1,1.616434700E0,-4.015832261E-1,1.817624910E0
1.402773858E1,-1.167388127E0,2.333522025E0,-4.756815183E-1,2.652243011E0
1.403774458E1,-1.621755082E0,2.588265916E0,-9.734877312E-1,3.205758624E0
1.404775158E1,-1.380338166E0,2.247275010E0,-1.077126120E0,2.848820651E0
1.405775858E1,-8.959749209E-1,1.709264511E0,-8.326821005E-1,2.101836271E0
1.406776558E1,-4.347470984E-1,1.470457208E0,-3.975048298E-1,1.584064244E0
1.407777158E1,6.277260091E-3,1.442979972E0,3.292643148E-1,1.480082968E0
1.408777858E1,3.520074986E-1,1.467044773E0,1.028393671E0,1.825848621E0
1.409778558E1,5.739892202E-1,1.319685583E0,8.466434973E-1,1.669682267E0
1.410779258E1,9.146366751E-1,7.939799649E-1,2.318449877E-1,1.233173358E0
1.411779858E1,1.360772213E0,1.013421875E-1,-3.725524217E-1,1.414484557E0
1.412780558E1,1.783520057E0,-3.823611259E-1,-7.492908651E-1,1.971948434E0
1.413781258E1,2.125024056E0,-4.694343531E-1,-9.030211081E-1,2.356171253E0
1.414781858E1,2.225351167E0,-1.878809792E-1,-5.210746229E-1,2.293252241E0
1.415782558E1,1.968870069E0,2.386301333E-1,2.302417177E-1,1.996598342E0
1.416783258E1,1.884019953E0,4.575867248E-1,5.649340028E-1,2.019422497E0
1.417783958E1,1.958132535E0,3.693516558E-1,-1.031511699E-1,1.995330507E0
1.418784558E1,2.210795547E0,2.183467269E-1,-1.196053809E0,2.523061029E0
1.419785258E1,2.614348883E0,-7.920462906E-2,-2.077900614E0,3.340473682E0
1.420785958E1,2.967358156E0,-5.543569744E-1,-2.620280591E0,3.997298644E0
1.421786658E1,3.062808396E0,-1.062292319E0,-2.642114094E0,4.182107977E0
1.422787258E1,2.907416886E0,-1.481846999E0,-2.451595582E0,4.081576212E0
1.423787958E1,2.328612849E0,-1.741559268E0,-2.294328139E0,3.703971935E0
1.424788658E1,1.584604359E0,-1.683542025E0,-2.054324056E0,3.092819434E0
1.425789358E1,6.267003344E-1,-1.441858476E0,-1.874343250E0,2.446399761E0
1.426789958E1,-9.897581935E-3,-1.361983171E0,-1.645641104E0,2.136171988E0
1.427790658E1,-2.980211797E-1,-1.382592852E0,-1.446759612E0,2.023238244E0
1.428791358E1,-3.627355313E-1,-1.276779884E0,-1.912989252E0,2.328362475E0
1.429791958E1,4.950983673E-1,-1.238594057E0,-2.424553964E0,2.767254877E0
1.430792658E1,2.059755388E0,-1.358246216E0,-1.589980289E0,2.935210787E0
1.431793358E1,3.346812338E0,-1.610123216E0,-7.285044520E-1,3.784754726E0
1.432794058E1,3.993887734E0,-1.877622222E0,-4.229729623E-1,4.433453571E0
1.433794658E1,4.078407482E0,-2.056367512E0,-5.827457911E-1,4.604524687E0
1.434795358E1,3.874888417E0,-2.316742271E0,-1.309077125E0,4.700610377E0
1.435796058E1,3.705230870E0,-3.155498459E0,-1.999776405E0,5.261654872E0
1.436796758E1,3.980874463E0,-3.969253707E0,-2.130543682E0,6.011784499E0
1.437797358E1,4.932693583E0,-4.166206056E0,-2.175868227E0,6.813452974E0
1.438798058E1,6.016232345E0,-4.097243410E0,-2.566944044E0,7.718267740E0
1.439798758E1,6.729913666E0,-3.845495633E0,-2.627643405E0,8.184380519E0
1.440799458E1,6.925897717E0,-3.422990448E0,-2.001079749E0,7.980554051E0
1.441800058E1,6.681764769E0,-2.779086290E0,-1.306393692E0,7.353636210E0
1.442800758E1,6.170583050E0,-2.220124049E0,-7.194064037E-1,6.597165417E0
1.443801458E1,5.254253021E0,-1.764493217E0,-4.415952112E-1,5.560181423E0
1.444802158E1,3.744076555E0,-9.847874755E-1,-9.488797241E-1,3.986011585E0
1.445802758E1,2.351420206E0,-4.354795718E-1,-1.199681422E0,2.675454159E0
1.446803458E1,1.101612505E0,-4.486685514E-1,2.567793059E-1,1.216876819E0
1.447804158E1,-3.153244065E-1,-9.168767434E-1,1.972997911E0,2.198366030E0
1.448804758E1,-1.915285308E0,-1.433710381E0,3.316818753E0,4.089636892E0
1.449805458E1,-2.960054983E0,-2.709041909E0,4.408459125E0,5.961153028E0
1.450806158E1,-3.005400433E0,-3.839833190E0,5.130252289E0,7.077869682E0
1.451806858E1,-2.401544439E0,-4.375658584E0,4.525564821E0,6.737547082E0
1.452807458E1,-1.355938612E0,-4.643197351E0,2.781933007E0,5.580053980E0
1.453808158E1,-6.745157942E-1,-4.997918689E0,1.139924047E0,5.170453521E0
1.454808858E1,7.105103767E-1,-5.238773687E0,1.219736494E0,5.425618108E0
1.455809558E1,2.075051558E0,-5.222752901E0,2.245533417E0,6.051892858E0
1.456810158E1,2.666738181E0,-4.795555326E0,2.916628882E0,6.214142535E0
1.457810858E1,3.126574622E0,-3.972488387E0,3.895378230E0,6.382014134E0
1.458811558E1,3.592539822E0,-3.003686614E0,4.544009570E0,6.525066944E0
1.459812258E1,3.534732201E0,-1.735749475E0,5.368047439E0,6.657558959E0
1.460812858E1,2.206706150E0,-4.436966640E-1,5.386486634E0,5.837864081E0
1.461813558E1,6.834853499E-1,5.045965844E-1,5.522361892E0,5.587329488E0
1.462814258E1,-1.320147805E-1,1.457892711E0,5.792078748E0,5.974199133E0
1.463814958E1,-4.485649095E-1,1.988690084E0,5.952233984E0,6.291676099E0
1.464815558E1,-1.186000106E0,2.341591183E0,6.084491571E0,6.626513653E0
1.465816258E1,-1.633909543E0,2.801969368E0,6.040278434E0,6.856067116E0
1.466816958E1,-1.498999221E0,2.831719417E0,5.699951772E0,6.538737166E0
1.467817558E1,-1.253816552E0,2.506798999E0,5.494791101E0,6.168373077E0
1.468818258E1,-1.196375187E0,2.193530327E0,5.363614081E0,5.917030073E0
1.469818958E1,-1.738707874E0,2.124759470E0,5.049729112E0,5.747823239E0
1.470819658E1,-2.449324670E0,2.377020632E0,4.975049644E0,6.033285786E0
1.471820225E1,-2.997915997E0,2.845520600E0,5.088765709E0,6.555915211E0
1.472820925E1,-3.293555898E0,3.366781164E0,5.179478243E0,7.000694304E0
1.473821625E1,-3.612526190E0,3.940732743E0,5.076142740E0,7.372038059E0
1.474822325E1,-4.081850908E0,4.619497417E0,4.794850736E0,7.809728343E0
1.475822925E1,-4.537717381E0,5.482336532E0,4.366189895E0,8.349281830E0
1.476823625E1,-3.915207893E0,5.747036476E0,3.903226948E0,7.974488178E0
1.477824325E1,-3.349603799E0,5.308778307E0,3.255582325E0,7.071194313E0
1.478825025E1,-3.063854463E0,4.678121016E0,2.160557878E0,5.995000480E0
1.479825625E1,-2.554203253E0,3.651557524E0,1.058920230E0,4.580298970E0
1.480826325E1,-1.866302305E0,2.555313347E0,4.725836635E-2,3.164639624E0
1.481827025E1,-1.506246845E0,1.026602669E0,-1.495260219E0,2.357646225E0
1.482827625E1,-4.612982083E-1,-1.284289463E0,-3.703762927E0,3.947157873E0
1.483828325E1,5.915814090E-1,-4.732373237E0,-5.709932384E0,7.439667523E0
1.484829025E1,1.570943070E0,-7.656033688E0,-8.080668429E0,1.124188224E1
1.485829725E1,2.901099262E0,-8.242055089E0,-9.643293543E0,1.301310721E1
1.486830325E1,3.297936047E0,-8.135443391E0,-9.724486810E0,1.310066659E1
1.487831025E1,5.093778527E0,-7.440790079E0,-7.430094352E0,1.168410197E1
1.488831725E1,5.779012560E0,-5.930960060E0,-3.834142972E0,9.125454823E0
1.489832425E1,5.092424896E0,-4.259272095E0,-6.291036862E-1,6.668580175E0
1.490833025E1,4.232356484E0,-1.275778255E0,7.951239726E-1,4.491399971E0
1.491833725E1,3.631014501E0,2.618480818E0,1.163240112E0,4.625347085E0
1.492834425E1,3.366909218E0,5.249516192E0,1.379829166E0,6.387286314E0
1.493835125E1,2.754114001E0,6.597354949E0,1.832681400E0,7.380308758E0
1.494835725E1,1.414155830E0,7.163483537E0,2.585120698E0,7.745849348E0
1.495836425E1,-8.357652643E-1,6.791878949E0,2.653657375E0,7.339619929E0
1.496837125E1,-2.923462815E0,5.213576281E0,2.609718180E0,6.522165396E0
1.497837825E1,-4.725466214E0,2.695679267E0,2.899122318E0,6.164546039E0
1.498838425E1,-6.364565014E0,-1.055938150E0,2.039441284E0,6.766240755E0
1.499839125E1,-7.948160582E0,-6.791246281E0,-2.405638075E0,1.072759886E1
1.500839825E1,-6.972863722E0,-1.439552685E1,-7.406379215E0,1.762686798E1
1.501840525E1,-3.171393822E0,-1.957680545E1,-3.462404483E0,2.013199680E1
1.502841125E1,-3.850906793E-1,-1.547539297E1,1.513647081E0,1.555400945E1
1.503841825E1,-7.556314395E-1,-4.224056069E0,5.244772346E0,6.776523114E0
1.504842525E1,-2.054514383E0,3.729521374E0,7.830136288E0,8.912990145E0
1.505843225E1,-2.336026242E0,7.354448338E0,7.833943995E0,1.099616331E1
1.506843825E1,-2.583713273E0,8.643786287E0,7.187358888E0,1.153467570E1
1.507844525E1,-2.318028512E0,9.118868465E0,6.961839967E0,1.170445360E1
1.508845225E1,-1.168447203E0,7.449017696E0,6.307177516E0,9.830240166E0
1.509845825E1,2.445139854E-1,3.340572774E0,5.771552682E0,6.673082789E0
1.510846525E1,1.021936810E0,-2.335863250E-1,5.686859272E0,5.782671164E0
1.511847225E1,2.343146542E0,-2.191877904E0,5.599191383E0,6.453340887E0
1.512847925E1,4.098000332E0,-3.565649647E0,5.249433746E0,7.554072993E0
1.513848525E1,5.669732777E0,-5.000711904E0,4.320915781E0,8.707657693E0
1.514849225E1,6.164418916E0,-5.948003524E0,3.146361015E0,9.125699651E0
1.515849925E1,4.354570893E0,-5.013838903E0,1.891898199E0,6.905081245E0
1.516850625E1,1.963932680E0,-2.056655779E0,1.703530147E0,3.314947892E0
1.517851225E1,1.320864272E-1,2.965737015E-1,1.487291926E0,1.522314047E0
1.518851925E1,-9.396273094E-1,1.383370532E0,8.386823671E-1,1.870829127E0
1.519852625E1,-1.983206857E0,2.022968801E0,-6.171962701E-2,2.833605745E0
1.520853325E1,-2.368486913E0,2.258585279E0,-4.105341804E-1,3.298405074E0
1.521853925E1,-2.037283369E0,2.161720889E0,-6.873822999E-1,3.048943285E0
1.522854625E1,-1.595322744E0,1.794698179E0,-9.950066543E-1,2.599237283E0
1.523855325E1,-1.279873061E0,1.603395410E0,-1.232919334E0,2.393541722E0
1.524856025E1,-7.964343336E-1,1.659294791E0,-1.268849305E0,2.235519047E0
1.525856625E1,-1.647481515E-1,1.665104585E0,-1.040062959E0,1.970138622E0
1.526857325E1,1.668729566E-1,1.663671432E0,-5.511082613E-1,1.760502637E0
1.527858025E1,4.915253531E-1,1.595706906E0,1.404846003E-1,1.675593514E0
1.528858725E1,8.409778377E-1,1.346747666E0,6.528042054E-1,1.716719642E0
1.529859325E1,1.212778819E0,8.263869882E-1,6.298269868E-1,1.597006560E0
1.530860025E1,1.830150140E0,6.183255136E-2,3.997051370E-1,1.874309739E0
1.531860725E1,2.393365208E0,-6.678724802E-1,3.725424814E-1,2.512576082E0
1.532861425E1,2.616709111E0,-9.392300642E-1,2.657424297E-1,2.792837039E0
1.533862025E1,2.448442763E0,-7.496095383E-1,-9.958517231E-2,2.562558025E0
1.534862725E1,2.191417728E0,-2.564875299E-1,-1.090454556E-2,2.206403504E0
1.535863425E1,2.172170156E0,1.921664035E-1,3.146741961E-1,2.203241013E0
1.536864025E1,2.465015673E0,3.557253045E-1,-1.353671354E-1,2.494226738E0
1.537864725E1,2.949685239E0,4.161556935E-1,-1.078655752E0,3.168174048E0
1.538865425E1,3.358676924E0,4.438878679E-1,-1.889721866E0,3.879277748E0
1.539866125E1,3.405802558E0,2.551912022E-1,-2.453490518E0,4.205262101E0
1.540866725E1,3.291012944E0,-4.720158988E-1,-2.445555847E0,4.127264058E0
1.541867425E1,2.701007250E0,-9.898523337E-1,-2.249328698E0,3.651674602E0
1.542868125E1,1.789491526E0,-1.454307783E0,-2.219173438E0,3.200315890E0
1.543868825E1,7.364750840E-1,-1.794161405E0,-2.097802051E0,2.856953647E0
1.544869425E1,-3.016753972E-2,-2.026586473E0,-1.962921989E0,2.821528938E0
1.545870125E1,-8.785133077E-1,-1.758920821E0,-2.073217579E0,2.857239790E0
1.546870825E1,-1.187360023E0,-1.515211796E0,-2.749629772E0,3.356509272E0
1.547871525E1,-1.667811553E-1,-1.341397464E0,-3.005834881E0,3.295786164E0
1.548872125E1,1.459954000E0,-9.904721385E-1,-2.197585371E0,2.818134525E0
1.549872825E1,2.789929951E0,-6.811228555E-1,-1.230423304E0,3.124352571E0
1.550873525E1,3.663419770E0,-8.451314074E-1,-6.571481019E-1,3.816639246E0
1.551874225E1,3.944245750E0,-1.406940658E0,-4.089134784E-1,4.207584436E0
1.552874825E1,3.949891237E0,-2.064550105E0,-7.105764502E-1,4.513194746E0
1.553875525E1,4.163219883E0,-2.735150312E0,-1.398845188E0,5.173994094E0
1.554876225E1,4.659109964E0,-3.409180495E0,-1.942290089E0,6.091166398E0
1.555876925E1,5.521360849E0,-4.153857906E0,-2.293597968E0,7.280147854E0
1.556877525E1,6.573619931E0,-4.530077117E0,-2.523709146E0,8.372764510E0
1.557878225E1,7.542662609E0,-4.298630873E0,-2.504398132E0,9.035596085E0
1.558878925E1,8.389596713E0,-4.001702830E0,-2.154519458E0,9.541536178E0
1.559879625E1,8.776120471E0,-3.693334125E0,-1.275250837E0,9.606626473E0
1.560880225E1,8.378406311E0,-3.126969894E0,-3.295852538E-1,8.948980918E0
1.561880925E1,7.785101033E0,-2.592394050E0,2.064762579E-1,8.207980108E0
1.562881625E1,6.597159652E0,-1.979822781E0,2.404357535E-1,6.892026049E0
1.563882225E1,5.239708073E0,-1.507644330E0,2.999428672E-1,5.460540068E0
1.564882925E1,3.309881324E0,-1.327419695E0,9.648455465E-1,3.694358450E0
1.565883625E1,1.269137719E0,-1.422299539E0,1.345057236E0,2.332986390E0
1.566884325E1,5.086582066E-1,-1.506005940E0,1.946296016E0,2.512937573E0
1.567884925E1,5.383817965E-1,-1.933699944E0,3.249101272E0,3.819124180E0
1.568885625E1,7.723783037E-1,-2.900925892E0,4.788111820E0,5.651367452E0
1.569886325E1,1.162837750E0,-3.795794885E0,6.072793046E0,7.255278480E0
1.570887025E1,1.579566544E0,-4.161382104E0,6.273372424E0,7.692030489E0
1.571887646E1,2.042482275E0,-4.319819428E0,5.624304589E0,7.380066114E0
1.572888346E1,3.025631507E0,-5.149010156E0,5.390158685E0,8.044909090E0
1.573889046E1,3.185320720E0,-6.123332285E0,5.136739190E0,8.603926770E0
1.574889746E1,3.194407878E0,-7.029011611E0,5.164809333E0,9.289052770E0
1.575890346E1,2.594865668E0,-7.277594875E0,5.327933786E0,9.385286006E0
1.576891046E1,2.855518462E0,-6.368816525E0,5.159378439E0,8.679573462E0
1.577891746E1,3.112438978E0,-4.660926694E0,5.387714549E0,7.774251224E0
1.578892446E1,2.102802298E0,-2.802137768E0,5.925348487E0,6.883567990E0
1.579893046E1,1.477005358E0,-1.716269476E0,6.279144795E0,6.674937086E0
1.580893746E1,2.759966918E-1,-1.110551144E0,5.834103856E0,5.945272561E0
1.581894446E1,-7.892277865E-1,-4.126421016E-1,4.900935893E0,4.981197309E0
1.582895146E1,-1.895292069E0,-3.469445407E-1,4.210536137E0,4.630455389E0
1.583895746E1,-2.681310904E0,-5.723283917E-1,3.553169934E0,4.487984462E0
1.584896446E1,-2.653114753E0,-9.963953680E-1,3.339588396E0,4.380031081E0
1.585897146E1,-2.621574579E0,-1.248645421E0,3.197641388E0,4.319337809E0
1.586897846E1,-2.469807174E0,-1.486926475E0,3.515484629E0,4.546375479E0
1.587898446E1,-3.024969602E0,-1.188565865E0,4.191842296E0,5.304212641E0
1.588899146E1,-3.572743489E0,-9.458502817E-1,4.673239760E0,5.958044868E0
1.589899846E1,-3.826486043E0,-7.211856383E-1,4.845730868E0,6.216366447E0
1.590900546E1,-4.022075114E0,-1.432480127E-1,4.609399860E0,6.119164591E0
1.591901146E1,-3.837322688E0,9.186127818E-1,4.210842531E0,5.770622989E0
1.592901846E1,-3.618571918E0,1.630091457E0,3.800829923E0,5.495231477E0
1.593902546E1,-3.541155075E0,1.926930038E0,3.382355808E0,5.262429995E0
1.594903246E1,-3.072083542E0,2.440344223E0,2.942997778E0,4.904509470E0
1.595903846E1,-2.707535082E0,2.599667986E0,2.701088526E0,4.624380940E0
1.596904546E1,-2.506152881E0,2.723625450E0,2.510442984E0,4.472277029E0
1.597905246E1,-2.331588790E0,2.964917820E0,2.436211411E0,4.490230507E0
1.598905846E1,-2.325939502E0,3.323798282E0,2.520206664E0,4.775884339E0
1.599906546E1,-2.508429202E0,3.457872598E0,2.731238524E0,5.070381036E0
1.600907246E1,-2.775851610E0,3.390789247E0,2.919862685E0,5.265776484E0
1.601907946E1,-2.852305709E0,3.289348242E0,3.095961524E0,5.342325100E0
1.602908546E1,-2.762157724E0,3.167085301E0,3.172303357E0,5.265306561E0
1.603909246E1,-2.715377367E0,3.410872679E0,2.992536559E0,5.287967637E0
1.604909946E1,-2.511858594E0,3.669417844E0,2.556811404E0,5.129458594E0
1.605910646E1,-1.933573206E0,3.692827756E0,1.870763438E0,4.568964655E0
1.606911246E1,-1.103589010E0,3.474204456E0,9.891875052E-1,3.777101697E0
1.607911946E1,9.671850175E-2,3.545306014E0,3.579297048E-1,3.564640637E0
1.608912646E1,1.907871915E0,3.025216062E0,2.160604656E-2,3.576642880E0
1.609913346E1,3.032434450E0,2.354287242E0,-4.673849040E-1,3.867399095E0
1.610913946E1,3.706593856E0,1.618191789E0,-7.266644794E-1,4.109187748E0
1.611914646E1,4.201908863E0,9.328975296E-1,-8.781482953E-1,4.392889746E0
1.612915346E1,4.462349988E0,3.636786872E-1,-1.204957364E0,4.636458977E0
1.613916046E1,3.999161338E0,-2.659816539E-1,-1.747119386E0,4.372237847E0
1.614916646E1,2.960842311E0,-8.553383070E-1,-2.417873374E0,3.917180422E0
1.615917346E1,2.281415733E0,-1.180873852E0,-2.907728543E0,3.879975010E0
1.616918046E1,2.223902081E0,-1.180658675E0,-3.089089584E0,3.985244011E0
1.617918746E1,2.119545215E0,-1.009530553E0,-2.982223240E0,3.795428738E0
1.618919346E1,1.561160240E0,-7.950149220E-1,-2.478902518E0,3.035494641E0
1.619920046E1,7.545570137E-1,-5.057286054E-1,-2.074380444E0,2.264546740E0
1.620920746E1,-5.886814093E-2,-6.565487623E-2,-1.893946771E0,1.895998521E0
1.621921446E1,-6.467417391E-1,3.415083843E-1,-1.454701300E0,1.628207212E0
1.622922046E1,-8.839238825E-1,6.760679376E-1,-7.749572182E-1,1.356078160E0
1.623922746E1,-9.232094973E-1,9.481435597E-1,-7.847021878E-2,1.325688335E0
1.624923446E1,-6.950908305E-1,1.164343189E0,5.214921141E-1,1.452859370E0
1.625924146E1,-2.415750103E-1,1.324646945E0,1.036317818E0,1.699118193E0
1.626924746E1,-1.603394606E-1,1.591462412E0,1.367497095E0,2.104402447E0
1.627925446E1,-2.647644829E-1,2.150216492E0,1.386921546E0,2.572369058E0
1.628926146E1,-9.281124607E-1,2.779265800E0,9.516033572E-1,3.080788872E0
1.629926846E1,-2.356111281E0,3.052464087E0,1.943278268E-1,3.860901537E0
1.630927446E1,-5.151584685E0,2.638806324E0,-5.597668183E-1,5.815106403E0
1.631928146E1,-9.151670176E0,1.398121303E0,-1.184716058E0,9.333346791E0
1.632928846E1,-1.317810147E1,-6.971968514E-1,-1.261220735E0,1.325666321E1
1.633929546E1,-1.620486938E1,-3.941082407E0,-1.656307449E0,1.675927434E1
1.634930146E1,-1.309747187E1,-8.026501577E0,-2.183585383E0,1.551568697E1
1.635930846E1,-3.823464494E0,-1.279409259E1,-7.872189463E0,1.550093717E1
1.636931546E1,6.037271211E0,-1.811373386E1,-1.186971212E1,2.248212765E1
1.637932246E1,1.372985292E1,-1.974779675E1,-5.702523378E0,2.471847711E1
1.638932846E1,1.180164117E1,-1.309866119E1,4.139765532E0,1.811053059E1
1.639933546E1,7.134714067E0,-1.870184564E0,8.299802191E0,1.110353329E1
1.640934246E1,4.287417668E0,6.338998064E0,1.032673131E1,1.285325742E1
1.641934946E1,-2.217629334E0,1.003030554E1,1.129860638E1,1.527034431E1
1.642935546E1,-9.124205804E0,1.025949886E1,5.325855101E0,1.472661471E1
1.643936246E1,-8.166237168E0,8.037383831E0,3.993019715E-1,1.146500808E1
1.644936946E1,-2.400222676E0,4.038065495E0,3.294185058E0,5.737481768E0
1.645937646E1,5.539149980E-1,9.221673042E-1,8.633061908E0,8.699825991E0
1.646938246E1,9.200582135E-1,-8.976838428E-1,1.033620497E1,1.041582818E1
1.647938946E1,5.898483308E-1,-3.126640111E0,7.921131828E0,8.536283083E0
1.648939646E1,9.584535165E-1,-5.593771598E0,5.391050971E0,7.827665323E0
1.649940346E1,1.476873503E0,-7.914847825E0,3.658692589E0,8.843755023E0
1.650940946E1,1.931546414E0,-9.282900991E0,2.158262554E0,9.724259335E0
1.651941646E1,1.894704424E0,-8.310767475E0,1.665712110E0,8.685237919E0
1.652942346E1,1.450768024E0,-4.863502895E0,1.783579991E0,5.379548853E0
1.653943046E1,5.351637083E-1,-1.064428307E0,1.839248115E0,2.191401708E0
1.654943646E1,-9.477612249E-1,1.807255075E0,1.429529329E0,2.491581094E0
1.655944346E1,-2.299046549E0,3.769246187E0,6.070020881E-1,4.456599981E0
1.656945046E1,-3.184232261E0,4.948591577E0,1.457371724E-1,5.886351418E0
1.657945746E1,-3.265286365E0,5.247877218E0,1.217485316E-1,6.182000731E0
1.658946346E1,-2.695428714E0,4.828947020E0,2.126013990E-1,5.534371205E0
1.659947046E1,-1.712006563E0,4.107218176E0,4.414403696E-1,4.471585537E0
