"Time (s)","Linear Acceleration x (m/s^2)","Linear Acceleration y (m/s^2)","Linear Acceleration z (m/s^2)","Absolute acceleration (m/s^2)"
7.773249992E-3,-8.570052313E0,-5.267758920E0,-6.154759315E0,1.179305486E1
1.778225000E-2,-7.589128093E0,-1.723251051E0,-6.580384867E-1,7.810087966E0
2.779024999E-2,-5.859598886E0,1.155065997E0,-1.610542461E-2,5.972381095E0
3.779925000E-2,-4.836125062E0,3.713026963E0,-2.513704853E-1,6.102283340E0
4.780725000E-2,-3.696512964E0,5.179650151E0,7.670987065E-1,6.409479246E0
5.781625000E-2,-2.109563141E0,5.504943037E0,1.673321969E0,6.128185775E0
6.782425000E-2,-4.090522036E-1,5.302088508E0,2.319811182E0,5.801809215E0
7.783324999E-2,1.272857279E0,5.137143817E0,3.191443925E0,6.180269134E0
8.784125000E-2,2.821028076E0,4.855420874E0,4.466513498E0,7.175169272E0
9.785024999E-2,3.248028015E0,4.975444331E0,5.004807293E0,7.768708279E0
1.078582500E-1,2.768810101E0,5.799563769E0,4.625373576E0,7.918038267E0
1.178672500E-1,1.836961269E0,6.633222939E0,4.482351558E0,8.213741459E0
1.278752500E-1,5.687095499E-1,7.407138768E0,4.011833424E0,8.442981861E0
1.378842500E-1,-8.437005937E-1,8.140387212E0,3.446974558E0,8.880279740E0
1.478922500E-1,-2.002888293E0,8.638205119E0,3.062775067E0,9.381403963E0
1.579012500E-1,-2.679910496E0,8.970456777E0,2.560494565E0,9.706036651E0
1.679092500E-1,-3.293634251E0,9.330244727E0,1.183579359E0,9.965056615E0
1.779182500E-1,-4.218081677E0,9.054893494E0,-7.731945750E-1,1.001903883E1
1.879262500E-1,-5.148453501E0,8.053471860E0,-2.118640212E0,9.790486137E0
1.979352500E-1,-5.549777148E0,7.274343823E0,-2.177755416E0,9.405249762E0
2.079432500E-1,-5.109985254E0,6.633535180E0,-1.811102397E0,8.567136638E0
2.179522500E-1,-4.234799451E0,6.110177804E0,-9.512320590E-1,7.494841000E0
2.279602500E-1,-3.259763669E0,5.626072202E0,2.168217731E-1,6.505825027E0
2.379692500E-1,-2.254211269E0,5.002383038E0,1.472890380E0,5.681083574E0
2.479772500E-1,-1.465012865E0,4.237073141E0,1.988118226E0,4.904249746E0
2.579862500E-1,-7.489461717E-1,3.461078042E0,9.555088587E-1,3.667830252E0
2.679942500E-1,4.289888701E-1,3.010430793E0,-1.037961470E0,3.213112046E0
2.780032500E-1,1.927806535E0,2.837720414E0,-2.447377547E0,4.214113435E0
2.880112500E-1,3.184573739E0,2.241378093E0,-3.212289541E0,5.048176873E0
2.980202500E-1,3.869079793E0,1.132807986E0,-3.301171604E0,5.210639724E0
3.080282500E-1,4.001697860E0,-1.474363732E-1,-2.820668764E0,4.898111424E0
3.180372500E-1,3.726605952E0,-1.489198703E0,-1.727047356E0,4.368981262E0
3.280452500E-1,3.413272376E0,-2.792506819E0,-1.068450606E0,4.537632571E0
3.380542500E-1,2.927485700E0,-3.878636482E0,-1.943387319E0,5.233617081E0
3.480622500E-1,1.901597853E0,-3.916171514E0,-4.020257215E0,5.925786175E0
3.580712500E-1,7.552480084E-1,-2.525928749E0,-5.836832167E0,6.404633116E0
3.680792500E-1,8.560747638E-1,-3.441331995E-1,-6.239791864E0,6.307637765E0
3.780882500E-1,9.545769587E-1,7.905418020E-1,-6.780603179E0,6.892949512E0
3.880962500E-1,8.637246761E-1,9.762072712E-1,-8.922510778E0,9.017216840E0
3.981052500E-1,1.730655965E0,3.961430132E-1,-9.888631017E0,1.004674687E1
4.081132500E-1,3.528905159E0,-1.590835590E0,-7.056684144E0,8.048647128E0
4.181222500E-1,5.235622623E0,-4.046280248E0,-4.273159525E0,7.876802677E0
4.281302500E-1,6.225337547E0,-4.340700420E0,-1.414073969E0,7.719851870E0
4.381392500E-1,4.803815395E0,-2.840161627E0,2.293872933E0,6.033656723E0
4.481472500E-1,1.924679152E0,-1.801144735E0,4.272247944E0,5.020021383E0
4.581562500E-1,-1.477315114E0,-2.097842982E0,4.685353145E0,5.341904081E0
4.681642500E-1,-5.427329435E0,-4.278065046E0,4.528487844E0,8.262260435E0
4.781732500E-1,-8.552466227E0,-6.797794577E0,5.412611994E0,1.219225403E1
4.881812500E-1,-9.164859155E0,-7.477486619E0,3.927967687E0,1.246340161E1
4.981902500E-1,-7.238130262E0,-6.507916523E0,1.495716741E0,9.847876711E0
5.081982500E-1,-6.075700282E0,-4.450609948E0,1.422572604E0,7.664579287E0
5.182072500E-1,-5.398931263E0,-2.048470262E0,2.114689980E0,6.149520543E0
5.282152500E-1,-4.471853175E0,7.314282060E-2,3.684991318E0,5.794996264E0
5.382242500E-1,-4.453818900E0,1.425259400E0,3.489978198E0,5.835050554E0
5.482322500E-1,-4.474777660E0,2.364102963E0,3.020588576E0,5.893774111E0
5.582412500E-1,-3.908181294E0,3.096220556E0,2.566712494E0,5.607894059E0
5.682492500E-1,-3.271092065E0,3.260432591E0,2.324781754E0,5.170597081E0
5.782582500E-1,-2.735617504E0,2.923131278E0,2.565099832E0,4.754790926E0
5.882662500E-1,-1.771251722E0,2.532673513E0,2.982500105E0,4.295005781E0
5.982752500E-1,-7.604070067E-1,2.092792157E0,3.303369280E0,3.983747787E0
6.082832500E-1,-1.287419477E-1,1.624865801E0,3.499407710E0,3.860390871E0
6.182922500E-1,3.119013003E-1,1.087922419E0,3.637936435E0,3.809913269E0
6.283002500E-1,5.591759571E-1,5.756501949E-1,3.864009672E0,3.946469517E0
6.383092500E-1,7.347046933E-1,9.548853993E-2,4.023650354E0,4.091292121E0
6.483172500E-1,8.676782709E-1,-3.946888107E-1,3.975208511E0,4.087900139E0
6.583262500E-1,9.378869587E-1,-7.725534278E-1,3.707190857E0,3.901247851E0
6.683342500E-1,9.934398928E-1,-9.059430349E-1,2.869882439E0,3.169208232E0
6.783432500E-1,1.385323502E0,-9.529587418E-1,2.086580075E0,2.679751477E0
6.883512500E-1,1.904140222E0,-7.148735690E-1,1.137421512E0,2.330348022E0
6.983602500E-1,4.184114031E0,5.263897419E-1,-6.687893236E0,7.906441192E0
7.083682500E-1,5.854755637E0,2.010449327E0,-1.634505170E1,1.747800861E1
7.183772500E-1,4.932819883E0,2.706381426E0,-2.091285680E1,2.165651847E1
7.283852500E-1,3.353510908E0,2.693046851E0,-1.527386518E1,1.586787617E1
7.383942500E-1,2.834500937E0,2.522085375E0,-6.978884600E0,7.943559685E0
7.484022500E-1,2.275690724E0,2.256684934E0,-1.104770733E0,3.389972497E0
7.584112500E-1,1.424770280E0,2.218819535E0,1.561175004E0,3.064375609E0
7.684192500E-1,3.677039105E-1,2.366040730E0,2.801353072E0,3.685231870E0
7.784282500E-1,-5.757624614E-1,2.770121339E0,3.047046057E0,4.158072188E0
7.884362500E-1,-1.788719986E0,3.136016121E0,3.391496176E0,4.953419284E0
7.984452500E-1,-2.918216109E0,3.257193233E0,2.770773304E0,5.177110943E0
8.084532500E-1,-3.763170930E0,3.358665229E0,1.649718075E0,5.306944252E0
8.184622500E-1,-4.048833727E0,3.397945070E0,7.019104381E-1,5.332144363E0
8.284702500E-1,-3.263618739E0,3.231774802E0,-1.495498493E-1,4.595426074E0
8.384792500E-1,-4.021118510E-1,1.980516846E0,1.059959865E0,2.282028885E0
8.484872500E-1,2.131024176E0,4.291698414E-1,4.814351785E0,5.282370103E0
8.584962500E-1,2.802428375E0,-7.160909593E-2,6.673373430E0,7.238276424E0
8.685047500E-1,2.596695262E0,5.464895457E-1,6.329366530E0,6.863115749E0
8.785137500E-1,2.610769510E0,1.528335872E0,5.504794518E0,6.281296893E0
8.885217500E-1,2.949591098E0,2.453918535E0,3.787441553E0,5.391337250E0
8.985307500E-1,2.962895268E0,3.372795610E0,1.539445728E0,4.745986910E0
9.085387500E-1,2.133747810E0,3.838814020E0,1.060826714E-1,4.393247811E0
9.185477500E-1,1.764842881E0,3.236884684E0,-3.849748313E-1,3.706790859E0
9.285567500E-1,1.782249457E0,1.576236847E0,-7.474776435E-1,2.493924328E0
9.385647500E-1,1.975808668E0,-1.029437984E0,-1.090528085E0,2.480486637E0
9.485737500E-1,1.534046263E0,-4.517556474E0,-1.256597049E0,4.933624487E0
9.585817500E-1,8.527076447E-1,-8.048408171E0,-9.868823867E-1,8.153399368E0
9.685897500E-1,1.886826324E-1,-1.156017689E1,-2.731107254E-1,1.156494187E1
9.785987500E-1,-4.231764454E-1,-1.458644662E1,7.990886772E-1,1.461444649E1
9.886077500E-1,-1.463827634E0,-1.624440006E1,1.313503321E0,1.636302588E1
9.986157500E-1,-2.569340817E0,-1.534443172E1,8.479455261E-1,1.558114593E1
1.008624750E0,-3.490481935E0,-1.184583443E1,2.025335169E-1,1.235104357E1
1.018632750E0,-4.287390186E0,-8.083704888E0,5.753847313E-1,9.168373188E0
1.028641750E0,-5.063824995E0,-6.035170307E0,9.766393074E-1,7.938477722E0
1.038649750E0,-5.028769768E0,-6.306809142E0,1.706830316E0,8.244855163E0
1.048658750E0,-3.584870321E0,-8.638327911E0,3.472923331E0,9.976632738E0
1.058666750E0,-5.783519009E-1,-1.125377344E1,4.951882975E0,1.230865763E1
1.068675750E0,4.366890976E0,-1.380089776E1,4.726906675E0,1.522754617E1
1.078683750E0,1.003269355E1,-1.634799518E1,3.772487299E0,1.954849219E1
1.088692750E0,1.545103581E1,-1.889018796E1,4.220637787E0,2.476666090E1
1.098700750E0,1.966945107E1,-2.044043686E1,4.575554422E0,2.873385569E1
1.108709750E0,2.135387018E1,-1.950233297E1,3.556066645E0,2.913716481E1
1.118717750E0,2.093060895E1,-1.638782525E1,1.240110825E0,2.661182223E1
1.128726750E0,2.015333156E1,-1.212540150E1,-1.337908722E0,2.355784655E1
1.138734750E0,1.922807751E1,-7.401885045E0,-5.124647732E0,2.123131840E1
1.148743750E0,1.807381024E1,-1.322457163E0,-1.811402388E1,2.562282909E1
1.158751750E0,1.266427037E1,3.646702580E0,-2.853127360E1,3.142794548E1
1.168760750E0,5.332467132E0,4.779065593E0,-2.169183691E1,2.284317101E1
1.178768750E0,1.325666115E0,5.855014084E0,-1.804229843E1,1.901481299E1
1.188777750E0,-1.446399423E-1,5.962076018E0,-1.274584020E1,1.407208988E1
1.198785750E0,-1.378627270E-1,5.553051589E0,-6.327898879E0,8.420076740E0
1.208794750E0,-8.289308193E-1,5.312878960E0,-1.592441382E0,5.608001311E0
1.218802750E0,-1.789237757E0,5.964969220E0,7.495702158E-1,6.272486354E0
1.228811750E0,-2.482676018E0,6.631289849E0,1.203731203E0,7.182384986E0
1.238819750E0,-3.146034155E0,7.058900238E0,1.804518578E0,7.936113078E0
1.248828750E0,-3.860201966E0,7.448180959E0,2.464550527E0,8.743601553E0
1.258836750E0,-4.745551692E0,7.836415029E0,3.227733207E0,9.713285902E0
1.268845750E0,-5.475524526E0,7.987337512E0,4.537300183E0,1.069420508E1
1.278853750E0,-5.830362808E0,7.766877601E0,6.425329864E0,1.164484358E1
1.288862750E0,-5.871222566E0,7.366069679E0,8.936718342E0,1.298442034E1
1.298870750E0,-5.423191946E0,6.964497526E0,1.143239418E1,1.444350627E1
1.308879750E0,-5.105312744E0,6.612507423E0,1.300659211E1,1.545836055E1
1.318887750E0,-5.093969731E0,6.387153978E0,1.278585738E1,1.517308184E1
1.328896750E0,-5.713801487E0,6.368573865E0,1.068406635E1,1.368778778E1
1.338904750E0,-6.026334579E0,6.412377697E0,9.570282869E0,1.300098498E1
1.348913750E0,-6.073835020E0,6.706124854E0,1.005000014E1,1.352279872E1
1.358921750E0,-6.417305145E0,7.123773342E0,1.004169709E1,1.388400635E1
1.368930750E0,-6.928033120E0,7.297906348E0,9.308225867E0,1.370766752E1
1.378938750E0,-7.546004292E0,7.299927145E0,8.600332704E0,1.357191364E1
1.388947750E0,-8.281819664E0,7.307270079E0,8.148669208E0,1.372536130E1
1.398955750E0,-8.267894520E0,7.394746179E0,6.803845861E0,1.301278868E1
1.408964750E0,-7.792835146E0,7.672541547E0,5.344862645E0,1.217225247E1
1.418972750E0,-7.178523746E0,7.933825548E0,4.249590568E0,1.151241986E1
1.428981750E0,-6.562362871E0,8.139951594E0,3.347946113E0,1.097871402E1
1.438989750E0,-5.905196058E0,8.398043016E0,2.338646818E0,1.052937491E1
1.448998750E0,-5.275015315E0,8.617360965E0,1.359906679E0,1.019480469E1
1.459006750E0,-4.782203794E0,8.739887615E0,6.693107490E-1,9.985143240E0
1.469015750E0,-4.464957261E0,8.793639314E0,1.857017950E-1,9.863996193E0
1.479023750E0,-4.358516009E0,8.835318267E0,-1.397437763E-1,9.852869583E0
1.489032750E0,-4.219088275E0,8.969457487E0,-6.312641593E-1,9.932289159E0
1.499040750E0,-4.064515667E0,9.280855050E0,-2.086840861E0,1.034453783E1
1.509049750E0,-3.608211529E0,1.191125542E1,-1.675259444E1,2.086975363E1
1.519057750E0,-4.483648178E0,1.255048356E1,-1.761557798E1,2.208905444E1
1.529066750E0,-5.680105737E0,1.064374512E1,-1.097543194E1,1.630990551E1
1.539074750E0,-5.698254325E0,8.772960636E0,-8.331173673E0,1.337323429E1
1.549083750E0,-5.115168811E0,7.270727320E0,-7.699574980E0,1.176060724E1
1.559091750E0,-4.680478906E0,5.596498740E0,-1.344718565E1,1.529883927E1
1.569100750E0,-3.755000031E0,5.608082659E0,-6.354209011E0,9.269659567E0
1.579108750E0,-3.199875317E0,4.939016177E0,5.167567465E-1,5.907632383E0
1.589117750E0,-2.744576900E0,5.146432119E0,8.124054769E0,1.000093655E1
1.599125750E0,-2.955241263E0,5.641005991E0,1.080808463E1,1.254468385E1
1.609134750E0,-3.690784739E0,3.168396832E0,1.205588162E1,1.300018892E1
1.619142750E0,-9.588267151E-1,-1.770554441E0,1.071068639E1,1.089830329E1
1.629151750E0,8.281634892E0,-2.821308450E1,8.773195109E0,3.068440264E1
1.639159750E0,1.827391482E1,-6.670569573E1,9.622489150E0,6.982963628E1
1.649168750E0,2.468987511E1,-7.957383162E1,-1.016023418E1,8.393339603E1
1.659176750E0,3.127921236E1,-8.151922365E1,-7.363859432E1,1.142209067E2
1.669185750E0,1.598607008E1,-5.372374964E1,-2.430113818E1,6.109288853E1
1.679193750E0,7.827356522E0,-3.042592350E1,8.493015246E0,3.254436416E1
1.689202750E0,2.892575191E0,-1.717473418E1,1.111836128E1,2.066292435E1
1.699210750E0,-3.827502581E-1,-8.182117621E0,1.209770441E1,1.460985964E1
1.709219750E0,-2.501529488E0,-1.956290077E0,7.717393200E0,8.345230880E0
1.719227750E0,-4.157639301E0,2.402897485E0,6.653299938E0,8.205259347E0
1.729236750E0,-4.541082454E0,5.519252343E0,7.768529440E0,1.055621267E1
1.739244750E0,-4.035484534E0,7.590926111E0,8.902074759E0,1.237554967E1
1.749253750E0,-3.372357362E0,9.238988401E0,9.078701602E0,1.338486173E1
1.759261750E0,-3.312731842E0,1.146090755E1,8.723425949E0,1.477920006E1
1.769270750E0,-4.778499875E0,1.157435756E1,8.815512578E0,1.531381977E1
1.779278750E0,-5.559379445E0,6.861697043E0,7.745150517E0,1.174635870E1
1.789287750E0,-2.233719702E0,7.480725392E0,6.278403368E0,1.001843825E1
1.799295750E0,1.358697328E0,8.624646011E0,5.162893785E0,1.014327607E1
1.809304750E0,3.758642262E0,7.766221544E0,3.692479847E0,9.384881253E0
1.819312750E0,5.921315078E0,7.054845194E0,4.049279870E0,1.006128622E1
1.829321750E0,7.220368760E0,5.949944800E0,4.681819380E0,1.046207440E1
1.839329750E0,6.548371654E0,5.154462100E0,4.763382776E0,9.598930478E0
1.849338750E0,1.865792136E0,4.894484952E0,4.554374345E0,6.941144640E0
1.859346750E0,-1.419904228E0,5.043719344E0,4.800214680E0,7.106144792E0
1.869356417E0,-2.944456951E0,5.152060649E0,4.729989912E0,7.588567732E0
1.879364417E0,-3.394087662E0,5.269944025E0,3.898693601E0,7.381866490E0
1.889373417E0,-3.265360039E0,5.307859125E0,3.244922851E0,7.026056432E0
1.899381417E0,-3.362379088E0,5.292167537E0,2.766355147E0,6.853127109E0
1.909390417E0,-3.641965459E0,5.305302722E0,2.625007480E0,6.949878679E0
1.919398417E0,-3.528927086E0,5.326474321E0,2.738877912E0,6.951698158E0
1.929407417E0,-2.905491106E0,5.228397219E0,3.090932334E0,6.732895271E0
1.939415417E0,-2.774286311E0,4.877474817E0,3.001479582E0,6.363592131E0
1.949424417E0,-2.921640238E0,4.196981122E0,2.038893985E0,5.505244854E0
1.959432417E0,-3.337806749E0,3.333269017E0,6.584850678E-1,4.762902353E0
1.969441417E0,-3.433956901E0,2.282138448E0,-1.411195385E0,4.357945423E0
1.979449417E0,-3.011188884E0,8.645611203E-1,-5.021400522E0,5.918546074E0
1.989458417E0,-2.365401630E0,-8.348151648E-1,-8.665640255E0,9.021383611E0
1.999466417E0,-1.762026862E0,-2.184141453E0,-8.324489136E0,8.784778422E0
2.009475417E0,-9.182520086E-1,-2.705764545E0,-6.247159356E0,6.869595952E0
2.019483417E0,-2.028197381E-1,-2.787416818E0,-5.231871049E0,5.931551487E0
2.029492417E0,2.325355804E-1,-2.929297752E0,-5.870275317E0,6.564677480E0
2.039500417E0,-2.656638578E-2,-3.376065958E0,-6.494950322E0,7.320034618E0
2.049509417E0,-7.495186141E-1,-4.873711549E0,-7.696827373E0,9.140896784E0
2.059517417E0,-8.800272980E-1,-7.927824551E0,-1.208684964E1,1.448160158E1
2.069526417E0,2.675560752E0,-1.027564653E1,-8.962853057E0,1.389533273E1
2.079534417E0,5.233477864E0,-8.701610572E0,4.499866893E0,1.110657999E1
2.089543417E0,4.716129672E0,-4.244496181E0,1.051022512E1,1.227690755E1
2.099551417E0,2.675150862E0,-3.181054884E-1,1.127033977E1,1.158784630E1
2.109560417E0,-5.686173101E-1,2.690644230E0,1.071913094E1,1.106628484E1
2.119568417E0,-4.796248806E0,4.740945840E0,8.008519635E0,1.046981169E1
2.129577417E0,-7.843593071E0,5.536953034E0,5.539209475E0,1.108434223E1
2.139585417E0,-9.902042191E0,4.678525643E0,2.198807439E0,1.117021915E1
2.149594417E0,-1.142768133E1,2.520333549E0,-1.750100589E0,1.183244834E1
2.159602417E0,-9.049367291E0,-4.303515637E-1,-4.776393708E0,1.024159107E1
2.169611417E0,-3.869608381E0,-2.777579463E0,1.841440529E0,5.106830712E0
2.179619417E0,-1.951602218E0,-3.817654116E0,8.846422130E0,9.830687599E0
2.189628417E0,3.800660938E-2,-5.543670900E0,1.088411013E1,1.221464632E1
2.199636417E0,2.004406084E0,-7.934509088E0,1.094214023E1,1.366398592E1
2.209645417E0,3.261413754E0,-9.425553172E0,9.202680116E0,1.357082140E1
2.219653417E0,4.428282940E0,-9.596307072E0,7.740586181E0,1.310020892E1
2.229662417E0,5.107029487E0,-8.496080942E0,6.553208470E0,1.188316805E1
2.239670417E0,4.878384059E0,-6.312168700E0,5.448124473E0,9.660443312E0
2.249679417E0,4.099938392E0,-3.852369620E0,4.724924469E0,7.346778733E0
2.259687417E0,3.259640878E0,-1.482703031E0,4.216049769E0,5.531613019E0
2.269696417E0,2.396705868E0,5.210430479E-1,3.894042141E0,4.602091815E0
2.279704417E0,1.699519249E0,2.074303261E0,3.600567757E0,4.489452959E0
2.289713417E0,1.059316963E0,3.234386169E0,3.059855260E0,4.576693187E0
2.299721417E0,1.084082553E-1,4.368345471E0,3.042485521E0,5.324557507E0
2.309730417E0,-8.493109971E-1,5.262137992E0,2.877674439E0,6.057428133E0
2.319738417E0,-1.079537804E0,4.506045645E0,1.820803074E0,4.978470956E0
2.329747417E0,-1.163437455E0,3.236606357E0,6.441047180E-1,3.499153942E0
2.339755417E0,-1.367229293E0,2.282799768E0,-7.174744105E-1,2.755949973E0
2.349764417E0,-1.561692190E0,1.021374089E0,-4.216724830E0,4.611166427E0
2.359772417E0,-1.520309106E0,-5.704350632E-1,-8.794766657E0,8.943414141E0
2.369781417E0,-7.589530966E-1,-1.944886252E0,-1.047870395E1,1.068465390E1
2.379789417E0,7.776904991E-1,-2.556086349E0,-9.191220158E0,9.571672159E0
2.389798417E0,2.072598798E0,-2.036455404E0,-6.555164364E0,7.170285645E0
2.399806417E0,2.644691254E0,-9.043917686E-1,-3.991545632E0,4.872858795E0
2.409815417E0,2.734407130E0,-3.940380156E-1,-2.366208546E0,3.637470439E0
2.419823417E0,2.481291105E0,-1.801801962E-1,-1.493242053E0,2.901558595E0
2.429832417E0,2.200333270E0,3.265699178E-1,-7.765254414E-1,2.356078558E0
2.439840417E0,1.980001998E0,1.067091714E0,-4.049506376E-1,2.285405359E0
2.449849417E0,1.721122080E0,1.832661227E0,-1.633337101E-1,2.519441662E0
2.459857417E0,1.574675348E0,2.336553807E0,6.172094263E-2,2.818314322E0
2.469866417E0,1.834614197E0,2.200362799E0,-3.552032212E-1,2.886793208E0
2.479874417E0,2.487842326E0,1.433656586E0,-1.377194703E0,3.184555839E0
2.489883417E0,2.926615342E0,6.348123229E-1,-2.820469959E0,4.113771364E0
2.499891417E0,2.990007638E0,-1.364675814E-1,-4.559880375E0,5.454473220E0
2.509900417E0,2.915870206E0,-8.195849222E-1,-6.673722509E0,7.328887407E0
2.519908417E0,3.137982540E0,-1.277651703E0,-8.935379330E0,9.556167227E0
2.529917417E0,3.811223348E0,-1.246996506E0,-1.040419639E1,1.115023436E1
2.539925417E0,4.667479668E0,-5.489863068E-1,-9.939589502E0,1.099464378E1
2.549934417E0,5.187763163E0,7.091269255E-2,-8.181065707E0,9.687504908E0
2.559942417E0,5.331932112E0,1.421107292E-1,-5.638861817E0,7.761859191E0
2.569950417E0,4.850991316E0,1.384041792E-1,-3.141676810E0,5.781124946E0
2.579959417E0,4.280062163E0,-3.588313454E-1,-1.070273768E0,4.426418190E0
2.589967417E0,3.549942271E0,-9.478927141E-1,6.757662213E-1,3.735940405E0
2.599976417E0,2.342866461E0,-1.567145596E0,1.586257221E0,3.234374830E0
2.609984417E0,8.967193446E-1,-2.065433035E0,1.825227077E0,2.898546720E0
2.619993417E0,-4.058298030E-1,-2.501230695E0,1.812679098E0,3.115551048E0
2.630001417E0,-1.545997679E0,-3.117382799E0,1.659625744E0,3.855196745E0
2.640010417E0,-2.540356754E0,-3.699032822E0,5.084678797E-1,4.516059769E0
2.650018417E0,-3.132258408E0,-4.140883520E0,-2.468076982E0,5.748857543E0
2.660027417E0,-2.759966772E0,-4.620620082E0,-5.890688531E0,7.979207849E0
2.670035417E0,-1.523926779E0,-4.916702033E0,-6.899053150E0,8.607743378E0
2.680044417E0,-5.733646645E-1,-4.726004450E0,-3.534296584E0,5.929175106E0
2.690052417E0,7.570034887E-1,-4.692353139E0,2.905784343E0,5.570889957E0
2.700061417E0,3.566565613E0,-4.259000199E0,1.103771180E1,1.235680197E1
2.710069417E0,5.476712095E0,-3.397305969E0,1.440285926E1,1.577904997E1
2.720078417E0,5.814142047E0,-1.900731588E0,1.431370442E1,1.556596166E1
2.730086417E0,3.899159625E0,-5.559889323E-1,6.314177803E0,7.441868770E0
2.740095417E0,2.922739222E0,-5.190321904E-1,-1.618561918E0,3.381056293E0
2.750103417E0,3.712448089E0,-1.170420785E0,1.342226014E0,4.117490291E0
2.760112417E0,3.545879333E0,-1.520684790E0,5.439140226E0,6.668582224E0
2.770120417E0,1.939346015E0,-1.030519134E0,6.159772718E0,6.539559052E0
2.780129417E0,1.790617115E0,7.269667804E-2,6.340091493E0,6.588501696E0
2.790137417E0,1.685231870E0,1.281558228E0,6.529343644E0,6.864016781E0
2.800146417E0,5.465234596E-1,2.360529730E0,6.308127689E0,6.757459836E0
2.810154417E0,-7.908689538E-1,3.445492288E0,5.486820177E0,6.527027383E0
2.820163417E0,-1.722355843E0,4.626363217E0,4.843038810E0,6.915545617E0
2.830171417E0,-3.059440692E0,5.484615777E0,4.410961148E0,7.674487984E0
2.840180417E0,-4.725738401E0,6.359819999E0,3.029898512E0,8.482935745E0
2.850188417E0,-6.107466450E0,7.114766291E0,8.155596989E-1,9.412023344E0
2.860197417E0,-6.075349449E0,7.806777247E0,-1.660654854E0,1.003062393E1
2.870204375E0,-6.062454000E0,8.375407859E0,-4.422712297E0,1.124549640E1
2.880213375E0,-6.996885254E0,8.412232454E0,-6.649900367E0,1.280403190E1
2.890221375E0,-8.305255305E0,6.826166437E0,-3.587247507E0,1.133323249E1
2.900230375E0,-8.918367441E0,4.261026260E0,4.126860142E0,1.071095688E1
2.910238375E0,-8.457391670E0,2.948463755E0,6.291713385E0,1.094561874E1
2.920247375E0,-8.187370759E0,1.200021729E0,1.721433152E0,8.452007111E0
2.930255375E0,-8.363916911E0,-3.444367869E0,-3.984017926E0,9.883884608E0
2.940264375E0,-3.666410913E0,-9.873652790E0,-5.133595726E0,1.171688497E1
2.950272375E0,3.535683836E0,-1.545203919E1,-3.992753667E-1,1.585641814E1
2.960281375E0,5.022069443E0,-1.872530935E1,2.964055941E0,1.961234354E1
2.970289375E0,2.722556871E0,-1.666200938E1,1.842593307E0,1.698322768E1
2.980298375E0,8.588124302E-1,-1.030606374E1,6.414658695E-1,1.036165948E1
2.990306375E0,-5.259517854E-1,-4.853653845E0,3.162916237E0,5.817097218E0
3.000315375E0,-1.881983660E0,-1.503174133E0,6.365901103E0,6.806327338E0
3.010323375E0,-2.892552387E0,8.604721624E-1,8.443254272E0,8.966371303E0
3.020332375E0,-2.834751198E0,2.687387915E0,7.723760818E0,8.655307582E0
3.030340375E0,-3.147225233E0,3.296184222E0,6.791520515E0,8.178912397E0
3.040349375E0,-3.630366629E0,2.898513916E0,5.954349507E0,7.552166764E0
3.050357375E0,-3.577712745E0,-2.507894182E-1,3.918944556E0,5.312348845E0
3.060366375E0,-1.338420939E0,-5.176373371E0,2.720679915E0,5.999025845E0
3.070374375E0,2.267316926E0,-1.069365462E1,3.714805394E0,1.154533474E1
3.080383375E0,6.375198761E0,-1.834880830E1,6.326624186E0,2.042909932E1
3.090391375E0,1.027471331E1,-2.901904833E1,8.877329342E0,3.203875584E1
3.100400375E0,1.287999755E1,-3.798949341E1,1.030979193E1,4.141723984E1
3.110408375E0,1.353192233E1,-4.086273800E1,9.171386987E0,4.401125558E1
3.120417375E0,1.232113003E1,-3.596138666E1,5.434330891E0,3.840004594E1
3.130425375E0,1.033490572E1,-2.543753285E1,-1.836988751E0,2.751822816E1
3.140434375E0,9.447335220E0,-1.616228177E1,-1.327728545E1,2.295120484E1
3.150442375E0,9.530229442E0,-9.170487685E0,-2.094286237E1,2.476946915E1
3.160451375E0,8.246607147E0,-4.312066020E0,-1.969333110E1,2.178136205E1
3.170459375E0,5.227939382E0,-1.574567467E-1,-1.736578961E1,1.813633898E1
3.180468375E0,2.439404430E0,3.009280061E0,-1.840272431E1,1.880602888E1
3.190476375E0,-1.358994805E0,5.753112903E0,-3.095131921E1,3.151078127E1
3.200485375E0,-3.155440279E0,6.523171324E0,-3.112376764E1,3.195618061E1
3.210493375E0,-2.030601610E0,4.981363467E0,-1.291402016E1,1.398961191E1
3.220502375E0,-2.207148931E0,4.644969642E0,-3.709616282E0,6.341017453E0
3.230510375E0,-2.436775668E0,5.442649725E0,-2.137275435E0,6.334686888E0
3.240519375E0,-1.842387632E0,5.698100544E0,-4.159837854E-1,6.002981301E0
3.250527375E0,-9.938164535E-1,5.680879909E0,1.460224580E0,5.949144771E0
3.260536375E0,-7.017924705E-1,6.395131919E0,3.953170356E0,7.551011905E0
3.270544375E0,-7.783893876E-1,7.444273265E0,5.364508120E0,9.208748115E0
3.280553375E0,-1.027827222E0,8.559551298E0,5.965161009E0,1.048358207E1
3.290561375E0,-1.139892033E0,9.538271703E0,6.627657559E0,1.167063947E1
3.300570375E0,-1.131889973E0,1.012682553E1,6.285389621E0,1.197246395E1
3.310578375E0,-1.160413129E0,1.050194079E1,6.000753011E0,1.215098167E1
3.320587375E0,-1.129372746E0,1.077278148E1,5.554830312E0,1.217310328E1
3.330595375E0,-1.239032744E0,1.086043592E1,4.647129604E0,1.187771376E1
3.340604375E0,-1.493049679E0,1.094391545E1,4.639203118E0,1.198001203E1
3.350612375E0,-1.828292187E0,1.085127450E1,5.570891443E0,1.233400349E1
3.360621375E0,-2.281088288E0,1.066829407E1,7.102885333E0,1.301794309E1
3.370629375E0,-2.559956913E0,1.056967494E1,8.263165877E0,1.365837904E1
3.380638375E0,-2.595525234E0,1.034368005E1,8.023145860E0,1.334538638E1
3.390646375E0,-2.505438352E0,1.018033223E1,7.243207984E0,1.274285869E1
3.400655375E0,-2.191745318E0,1.019556774E1,6.551689364E0,1.231576155E1
3.410663375E0,-1.877238937E0,1.025029768E1,5.914718249E0,1.198234203E1
3.420672375E0,-1.709039394E0,1.017882365E1,4.775757823E0,1.137264830E1
3.430680375E0,-1.682537473E0,1.007681196E1,3.630909251E0,1.084235093E1
3.440689375E0,-1.664716622E0,9.977754278E0,2.725484279E0,1.047640809E1
3.450697375E0,-1.589709270E0,9.947657490E0,2.259561618E0,1.032417957E1
3.460706375E0,-1.567973123E0,9.992886872E0,1.771360188E0,1.026908198E1
3.470714375E0,-1.564618576E0,1.004150881E1,1.337904922E0,1.025036195E1
3.480723375E0,-1.397574734E0,1.007706105E1,1.024659127E0,1.022498415E1
3.490731375E0,-1.040080282E0,1.008895429E1,8.125374193E-1,1.017491929E1
3.500739375E0,-6.314619414E-1,1.012057369E1,5.091392863E-1,1.015302806E1
3.510748375E0,-3.702205521E-1,1.011878210E1,2.397920481E-1,1.012839152E1
3.520756375E0,-1.787246780E-1,1.015802861E1,-3.744941358E-1,1.016650056E1
3.530765375E0,5.114718137E-1,1.117502080E1,-5.598451710E0,1.250941065E1
3.540773375E0,7.844742925E-1,1.107532811E1,-1.064855855E1,1.538408567E1
3.550782375E0,1.191063210E-1,8.875625464E0,-7.061325663E0,1.134254089E1
3.560790375E0,-4.912970924E-1,6.290397761E0,-1.462412959E1,1.592719822E1
3.570799375E0,-1.556846310E0,1.814358857E0,-2.608603584E1,2.619536093E1
3.580807375E0,-1.371939518E0,-1.061158544E-1,-1.403955187E1,1.410682442E1
3.590816375E0,5.698681757E-1,2.258036225E0,1.007353401E1,1.033922457E1
3.600824375E0,3.497830131E0,4.981796746E0,1.533393947E1,1.649796394E1
3.610833375E0,5.521784188E0,5.378836722E0,8.240856410E0,1.128422348E1
3.620841375E0,4.923005916E0,4.855064778E0,2.557253161E0,7.372054325E0
3.630850375E0,4.564116975E0,3.144766479E0,-8.958943024E-1,5.614565573E0
3.640858375E0,4.185183487E0,-7.380320513E-1,2.494723329E-1,4.257075120E0
3.650867375E0,3.088189698E0,-4.068886753E0,4.360204100E0,6.715961198E0
3.660875375E0,5.589762747E-2,-2.385121365E1,-4.239151358E1,4.864076419E1
3.670884375E0,-1.224972734E1,-5.229674367E1,-6.024452711E1,8.071188429E1
3.680892375E0,-1.266726298E1,-5.872941530E1,1.104446534E1,6.108669239E1
3.690901375E0,-1.169858751E1,-6.608931500E1,1.108370366E1,6.802575243E1
3.700909375E0,-1.546935280E1,-4.331500411E1,3.576172881E0,4.613327942E1
3.710918375E0,-1.248191560E1,-1.531963017E1,5.680452477E0,2.056105118E1
3.720926375E0,-1.067027277E1,-2.448388823E0,1.107229692E1,1.557064828E1
3.730935375E0,-8.959757541E0,5.281874099E0,1.256901338E1,1.631427432E1
3.740943375E0,-5.064345982E0,9.074016813E0,1.164818217E1,1.560978953E1
3.750952375E0,-2.091511471E0,1.133667994E1,1.193368066E1,1.659239182E1
3.760960375E0,-1.691627263E-1,1.412179763E1,1.469790859E1,2.038338297E1
3.770969375E0,3.430324903E0,1.835872869E1,5.148291534E0,1.937304709E1
3.780977375E0,9.065470523E0,2.072383269E1,1.566628118E0,2.267408920E1
3.790986375E0,1.096160795E1,1.922761441E1,8.771354406E0,2.380744973E1
3.800994375E0,9.626581031E0,1.354244147E1,6.376423752E0,1.779684138E1
3.811003375E0,7.136779304E0,2.458659457E0,-8.725175436E0,1.153721420E1
3.821011375E0,1.177097136E0,-6.830735452E0,-1.891555786E1,2.014554129E1
3.831020375E0,-1.948883994E0,-1.245184688E1,-6.293223136E0,1.408727429E1
3.841028375E0,-4.729688780E0,-1.452680269E1,3.081837575E0,1.558511069E1
3.851037375E0,-8.482228303E0,-1.550588503E1,1.960226423E-1,1.767538097E1
3.861045375E0,-1.098501904E1,-1.622255838E1,-4.040064658E0,2.000410373E1
3.871055125E0,-9.540832783E0,-1.297732913E1,-1.026851175E0,1.613979507E1
3.881063125E0,-6.319181265E0,-6.024341263E0,1.032491984E0,8.791517458E0
3.891072125E0,-3.697331282E0,-1.488285368E0,4.160358256E-1,4.007285584E0
3.901080125E0,-1.249011749E0,9.809288979E-1,2.825386298E-1,1.613096379E0
3.911089125E0,7.638583258E-1,2.578643737E0,2.723013246E-1,2.703152063E0
3.921097125E0,1.906815324E0,3.311138476E0,-3.450301623E-1,3.836486478E0
3.931106125E0,2.213276959E0,3.263789477E0,-5.785600618E-1,3.985680418E0
3.941114125E0,1.807392777E0,2.518767080E0,-3.844889277E-1,3.123889881E0
3.951123125E0,1.126641512E0,1.492179614E0,-1.799337360E-1,1.878376226E0
3.961131125E0,6.095751554E-1,5.884883416E-1,8.380931139E-2,8.514249226E-1
3.971140125E0,1.975829718E-1,-2.688239855E-1,2.836303049E-1,4.378944117E-1
3.981148125E0,-2.337041464E-1,-1.314751117E0,2.372516522E-1,1.356273009E0
3.991157125E0,-4.735636568E-1,-2.466626873E0,2.028855193E-1,2.519855790E0
4.001165125E0,-9.148655936E-1,-3.597925692E0,7.399572471E-1,3.785443840E0
4.011174125E0,-1.437104397E0,-4.954499019E0,1.506699127E0,5.374241513E0
4.021182125E0,-1.927678481E0,-6.535184428E0,1.410565932E0,6.958036798E0
4.031191125E0,-2.193519802E0,-8.167111326E0,6.403616229E-1,8.480760553E0
4.041199125E0,-2.369211676E0,-9.522614028E0,1.660308114E-1,9.814321583E0
4.051208125E0,-2.511870874E0,-1.031020708E1,-6.674677067E-1,1.063275028E1
4.061216125E0,-2.379657726E0,-1.027192302E1,-2.295953519E0,1.079104147E1
4.071225125E0,-2.011735568E0,-9.630068310E0,-4.694565725E0,1.090065333E1
4.081233125E0,-1.708516945E0,-8.492025313E0,-7.434443511E0,1.141509853E1
4.091242125E0,-1.278316239E0,-6.998331270E0,-8.358128167E0,1.097583889E1
4.101250125E0,-1.032655414E0,-5.229937375E0,-7.907091494E0,9.536284289E0
4.111259125E0,-1.165973027E0,-3.295188441E0,-6.633116519E0,7.497732639E0
4.121267125E0,-1.484517715E0,-1.290981016E0,-5.580414219E0,5.917047210E0
4.131275125E0,-1.986388473E0,7.103197575E-1,-4.895730994E0,5.330898169E0
4.141284125E0,-2.294439528E0,2.560064210E0,-3.350859196E0,4.800691498E0
4.151292125E0,-2.155668436E0,4.145458381E0,-6.054007916E-1,4.711501005E0
4.161301125E0,-2.022486113E0,5.624672964E0,9.847155547E-1,6.057809897E0
4.171309125E0,-2.157889209E0,7.011983349E0,1.256602896E0,7.443349190E0
4.181318125E0,-2.366451644E0,8.170101593E0,1.206231472E0,8.591021347E0
4.191326125E0,-2.598582743E0,9.054632708E0,1.080344428E0,9.481885353E0
4.201335125E0,-2.475318467E0,9.568160330E0,8.817203593E-1,9.922415251E0
4.211343125E0,-2.095017022E0,9.671406371E0,6.850247025E-1,9.919397984E0
4.221352125E0,-2.181756958E0,9.647506462E0,6.069269514E-1,9.909732826E0
4.231360125E0,-2.424015435E0,9.618327686E0,5.972077096E-1,9.937038561E0
4.241369125E0,-2.617581808E0,9.573188936E0,5.578711510E-1,9.940266653E0
4.251377125E0,-2.723900561E0,9.547563513E0,4.603033412E-1,9.939189226E0
4.261386125E0,-2.800505226E0,9.550427479E0,3.197152269E-1,9.957696138E0
4.271394125E0,-2.887145174E0,9.555804579E0,1.819209123E-1,9.984092529E0
4.281403125E0,-3.023952479E0,9.578916868E0,1.557452667E-1,1.004610340E1
4.291411125E0,-3.234516562E0,9.695442520E0,1.746797204E-1,1.022224124E1
4.301420125E0,-3.424657490E0,9.755201064E0,3.195743090E-1,1.034380754E1
4.311428125E0,-3.557858232E0,9.672246616E0,2.547871596E-1,1.030900705E1
4.321437125E0,-3.574900819E0,9.452757928E0,1.318564671E-1,1.010702401E1
4.331445125E0,-3.594162717E0,9.031668938E0,2.181034827E-1,9.722994321E0
4.341454125E0,-3.632752001E0,8.691566809E0,6.742020911E-1,9.444298236E0
4.351462125E0,-3.786853031E0,8.470902831E0,1.151643037E0,9.350012424E0
4.361471125E0,-4.011025923E0,8.315117803E0,1.597283900E0,9.369142378E0
4.371479125E0,-4.256912159E0,8.167465668E0,1.978736368E0,9.420413695E0
4.381488125E0,-4.440643077E0,8.051794878E0,2.227817230E0,9.461177586E0
4.391496125E0,-4.469891434E0,7.832887403E0,2.168819994E0,9.275658180E0
4.401505125E0,-3.688133612E0,6.132803605E0,2.193957174E0,7.485122422E0
4.411513125E0,-1.110073426E0,-7.679557621E-2,3.147757330E0,3.338642955E0
4.421522125E0,1.740430171E0,-1.042817232E1,4.753826671E0,1.159201204E1
4.431530125E0,7.382755879E0,-2.352559390E1,6.719634261E0,2.555605872E1
4.441539125E0,1.205135003E1,-3.284833373E1,7.925935315E0,3.587573716E1
4.451547125E0,1.260065384E1,-3.376066777E1,6.846514163E0,3.668015705E1
4.461556125E0,1.158579004E1,-2.987585019E1,6.276510040E0,3.265258847E1
4.471564125E0,9.882309008E0,-2.127304996E1,6.185288213E0,2.425820431E1
4.481573125E0,9.607717329E0,-1.147669503E1,2.383120155E0,1.515592368E1
4.491581125E0,9.977443206E0,-4.651912626E0,-5.698909798E0,1.239625899E1
4.501590125E0,1.233753264E1,3.462720525E0,-2.763906333E1,3.046511065E1
4.511598125E0,1.129684637E1,7.767827774E0,-3.114452759E1,3.402850989E1
4.521607125E0,8.809808035E0,8.078133076E0,-2.263781583E1,2.559960267E1
4.531615125E0,8.260519427E0,5.745567656E0,-1.353585985E1,1.686615637E1
4.541624125E0,9.319418022E0,2.976231013E0,-5.980647359E0,1.146637023E1
4.551632125E0,1.010062767E1,1.526103405E0,-3.222944337E-1,1.022034953E1
4.561641125E0,8.983600148E0,6.870688891E-1,1.589332417E0,9.148940529E0
4.571649125E0,6.637099643E0,1.007643657E0,1.445731525E0,6.867064660E0
4.581658125E0,4.589308242E0,1.820660402E0,1.242770138E0,5.091270181E0
4.591666125E0,3.047755909E0,2.818866068E0,1.254072952E0,4.336763881E0
4.601674125E0,1.934213914E0,3.685371387E0,1.234206160E0,4.341245279E0
4.611683125E0,1.049885112E0,4.320498875E0,1.021244427E0,4.562007174E0
4.621691125E0,3.061853546E-1,4.799844258E0,6.864666259E-1,4.858342393E0
4.631700125E0,-3.168658787E-1,5.022872851E0,3.330977494E-1,5.043868532E0
4.641708125E0,-5.908745903E-1,4.842166405E0,3.921135508E-2,4.878242082E0
4.651717125E0,-6.482691050E-1,4.215603919E0,-1.017479843E-1,4.266371044E0
4.661725125E0,-1.992473817E-1,3.163836588E0,-1.459289610E-1,3.173461318E0
4.671734125E0,5.730516922E-1,2.401282484E0,-1.834610689E-1,2.475520910E0
4.681742125E0,1.109062443E0,1.893880405E0,-3.248777336E-1,2.218636526E0
4.691751125E0,1.311477846E0,1.529073790E0,-4.149125755E-1,2.056743358E0
4.701759125E0,1.387846575E0,9.878443998E-1,-9.500439048E-2,1.706159579E0
4.711768125E0,1.546694959E0,3.749345773E-1,7.648918211E-1,1.765757835E0
4.721776125E0,1.795584617E0,-3.520456517E-1,1.786340754E0,2.557161228E0
4.731785125E0,2.184821484E0,-1.080105861E0,2.594693760E0,3.559846808E0
4.741793125E0,2.731219813E0,-1.829110213E0,3.242014446E0,4.616910602E0
4.751802125E0,3.269869997E0,-2.432941064E0,3.630872998E0,5.458432994E0
4.761810125E0,3.739583262E0,-2.541360136E0,3.630269566E0,5.798435258E0
4.771819125E0,4.211005669E0,-2.438704664E0,3.027915137E0,5.731327879E0
4.781827125E0,4.226882029E0,-2.289733981E0,3.122373397E0,5.732244676E0
4.791836125E0,3.861898828E0,-1.659628083E0,2.892548586E0,5.102495982E0
4.801844125E0,3.106062005E0,-1.090657747E0,2.096947188E0,3.903119651E0
4.811853125E0,2.816375154E0,-6.303731167E-1,2.075123041E0,3.554641319E0
4.821861125E0,2.448160781E0,-1.623777634E-1,2.890607311E0,3.791499489E0
4.831870125E0,1.605902696E0,6.593700439E-1,3.916574679E0,4.284069274E0
4.841878125E0,1.256374855E0,1.418103577E0,4.530032678E0,4.910263903E0
4.851887125E0,8.848936433E-1,1.939201589E0,4.329517913E0,4.825791636E0
4.861895125E0,1.561832231E-1,2.182812381E0,3.887764863E0,4.461365118E0
4.871903917E0,-7.951499927E-1,1.895723448E0,3.557933953E0,4.109127026E0
4.881911917E0,-1.605729033E0,1.521070122E0,3.735543421E0,4.341233084E0
4.891920917E0,-2.067141007E0,1.230119687E0,4.394676360E0,5.009934800E0
4.901928917E0,-2.295921505E0,9.480424029E-1,5.113200638E0,5.684616146E0
4.911937917E0,-2.550729715E0,7.043982822E-1,5.563773043E0,6.161003935E0
4.921945917E0,-2.862887415E0,4.931202543E-1,5.777763594E0,6.466981065E0
4.931954917E0,-3.184041057E0,2.788578075E-1,5.635906050E0,6.479144707E0
4.941962917E0,-3.604181044E0,1.270173115E-1,4.984612765E0,6.152448196E0
4.951971917E0,-3.947054753E0,6.409250021E-2,4.173345214E0,5.744576516E0
4.961979917E0,-4.191773007E0,1.150732040E-3,3.303522770E0,5.337061453E0
4.971988917E0,-4.420862238E0,-6.819139838E-2,2.551459155E0,5.104764129E0
4.981996917E0,-4.348024642E0,-4.422278434E-1,1.442761578E0,4.602438998E0
4.992005917E0,-3.914874601E0,-8.593500817E-1,-3.655726004E-1,4.024719746E0
5.002013917E0,-2.999518719E0,-1.281167049E0,-2.203843646E0,3.936423296E0
5.012022917E0,-1.839271504E0,-1.585385985E0,-3.743630997E0,4.462190206E0
5.022030917E0,-1.051883690E0,-1.903050594E0,-4.267011762E0,4.789097017E0
5.032038917E0,-5.821125376E-1,-1.956069637E0,-4.015199373E0,4.504096962E0
5.042047917E0,4.929319739E-2,-1.493239714E0,-1.975243534E0,2.476647266E0
5.052055917E0,5.137550783E-1,-9.174725747E-1,-4.585003522E-1,1.147136774E0
5.062064917E0,1.201032128E0,-4.625726455E-1,8.387526798E-1,1.536215377E0
5.072072917E0,1.832631991E0,8.898877501E-3,1.106198184E0,2.140629260E0
5.082081917E0,2.565569948E0,1.233672456E0,2.092747718E-2,2.846846474E0
5.092089917E0,2.596780631E0,2.638798138E0,-1.047837125E0,3.847660055E0
5.102098917E0,1.130365019E0,3.847303008E0,-7.395663607E-1,4.077551215E0
5.112106917E0,-9.910913587E-2,4.071512153E0,-1.298078951E-1,4.074786365E0
5.122115917E0,-4.814205605E-1,3.151141114E0,-1.102434039E-2,3.187722951E0
5.132123917E0,-5.921118611E-1,1.876914709E0,-3.375217527E-1,1.996829040E0
5.142132917E0,-6.979873949E-1,9.737116796E-1,-3.944473207E-1,1.261304692E0
5.152140917E0,-9.623996562E-1,6.407168412E-1,-4.667937505E-1,1.246847053E0
5.162149917E0,-8.694757050E-1,7.535295117E-1,-6.952897820E-1,1.344329799E0
5.172157917E0,-4.986745244E-1,8.987170458E-1,-1.019855859E0,1.447920779E0
5.182166917E0,-3.207724035E-2,8.590220529E-1,-1.357255697E0,1.606577376E0
5.192174917E0,5.033669150E-1,7.258721817E-1,-1.469777761E0,1.714793090E0
5.202183917E0,7.188409048E-1,7.096870887E-1,-1.677166514E0,1.957875258E0
5.212191917E0,8.031086379E-1,7.433191037E-1,-1.931681485E0,2.220112640E0
5.222200917E0,9.462706965E-1,1.028896531E0,-2.253713964E0,2.652033735E0
5.232208917E0,1.074796590E0,1.405540835E0,-2.980142215E0,3.465830401E0
5.242217917E0,1.115280957E0,1.724854358E0,-3.462045756E0,4.025510525E0
5.252225917E0,1.535012223E0,1.758582267E0,-2.559754892E0,3.464277590E0
5.262234917E0,1.945276262E0,6.986539775E-1,-1.468582006E0,2.535537462E0
5.272242917E0,3.266224258E0,-1.283842151E0,-1.371950335E0,3.768118800E0
5.282251917E0,4.100925402E0,-3.290425884E0,-4.367519259E-2,5.257984326E0
5.292259917E0,4.032945088E0,-4.110245864E0,6.271185565E-1,5.792412695E0
5.302268917E0,4.406159999E0,-4.913506529E0,2.181657556E-1,6.603361920E0
5.312276917E0,3.598063686E0,-5.981924976E0,-1.490729504E0,7.138050376E0
5.322285917E0,1.188816710E0,-5.403893795E0,1.383133720E0,5.703368496E0
5.332293917E0,-2.638879999E0,-2.932837071E0,8.456718071E0,9.331736251E0
5.342302917E0,-5.992683268E0,-3.433613670E-1,1.081655607E1,1.237045008E1
5.352310917E0,-8.195953887E0,1.781612695E0,8.958144879E0,1.227176286E1
5.362319917E0,-9.609120076E0,2.309582355E0,5.553198938E0,1.133610946E1
5.372327917E0,-1.118240349E1,7.206681597E-1,7.387962824E-1,1.122993012E1
5.382336917E0,-1.115944382E1,-1.982023088E0,-2.628244206E0,1.163483001E1
5.392344917E0,-6.205659328E0,-3.860047014E0,7.149206391E-1,7.343111205E0
5.402353917E0,-1.297020605E0,-5.063754829E0,6.285994808E0,8.175426970E0
5.412361917E0,1.582830167E0,-5.779548165E0,7.835954268E0,9.864618980E0
5.422370917E0,4.014392458E0,-5.378460161E0,6.823147520E0,9.570711707E0
5.432378917E0,5.769689759E0,-3.537659610E0,5.131227604E0,8.493165026E0
5.442386917E0,6.378974892E0,-1.769587896E0,2.549014142E0,7.093675711E0
5.452395917E0,5.882463253E0,-7.619752300E-1,9.021908766E-1,5.999827377E0
5.462403917E0,4.818081724E0,-5.691270411E-2,5.918072212E-1,4.854625253E0
5.472412917E0,3.414007371E0,6.924208456E-1,1.644097878E0,3.852006073E0
5.482420917E0,1.891322833E0,1.165138410E0,2.352718434E0,3.235727678E0
5.492429917E0,7.417532194E-1,1.262569980E0,2.384530796E0,2.798261587E0
5.502437917E0,3.498856902E-1,8.116789019E-1,2.253884118E0,2.420999019E0
5.512446917E0,5.130013722E-1,1.750071645E-2,2.066204867E0,2.129008980E0
5.522454917E0,6.848948944E-1,-6.966630006E-1,1.837205975E0,2.080804207E0
5.532463917E0,3.283509797E-1,-1.036890260E0,1.851405061E0,2.147243926E0
5.542471917E0,-5.296694452E-1,-5.969790834E-1,2.650370947E0,2.767923392E0
5.552480917E0,-1.189197949E0,2.309843141E-1,3.405263737E0,3.614327964E0
5.562488917E0,-1.257447234E0,1.067222691E0,3.250906892E0,3.645344077E0
5.572497917E0,-7.806009507E-1,1.781574104E0,2.821908374E0,3.427318340E0
5.582505917E0,-1.951215863E-3,2.109914559E0,1.852532697E0,2.807778596E0
5.592514917E0,7.994517893E-1,2.019073386E0,8.284829226E-1,2.324255677E0
5.602522917E0,1.424017451E0,1.665973481E0,4.453289142E-1,2.236428220E0
5.612531917E0,1.682616996E0,1.340487637E0,5.082437852E-1,2.210524554E0
5.622539917E0,1.494902662E0,1.074030020E0,5.853855166E-1,1.931566891E0
5.632548917E0,9.178257465E-1,8.206666571E-1,1.026212659E0,1.602813241E0
5.642556917E0,3.489437038E-1,4.047723341E-1,8.718397343E-1,1.022598100E0
5.652565917E0,-9.661412895E-2,-9.326484382E-2,-2.424132818E-1,2.771223921E-1
5.662573917E0,-4.439948720E-1,-4.310362726E-1,-8.559721452E-1,1.056225368E0
5.672582917E0,-8.627876598E-1,-5.578945398E-1,-3.762504932E-1,1.094172426E0
5.682590917E0,-1.571969549E0,-4.342048788E-1,-3.162022197E-1,1.661206183E0
5.692599917E0,-2.507685437E0,-9.543649971E-2,-1.328905472E0,2.839645071E0
5.702607917E0,-3.276579677E0,-1.853567362E-3,-1.631281366E0,3.660198999E0
5.712616917E0,-3.741210542E0,1.002154291E-2,-8.926891512E-1,3.846251509E0
5.722624917E0,-3.725344707E0,3.273037434E-1,5.239596391E-1,3.776222270E0
5.732633917E0,-3.306877025E0,1.114623145E0,1.386991712E0,3.755205244E0
5.742641917E0,-2.838535516E0,1.837213869E0,1.277592646E0,3.614537543E0
5.752650917E0,-2.060313213E0,2.228492584E0,9.091066709E-1,3.168208432E0
5.762658917E0,-9.937758154E-1,2.328850100E0,8.353133476E-1,2.666248591E0
5.772666917E0,1.136195862E-1,2.224463852E0,4.704552770E-1,2.276505438E0
5.782675917E0,1.300837083E0,1.920443721E0,-1.795510358E-1,2.326482275E0
5.792683917E0,2.494857230E0,1.508345411E0,-8.972786307E-2,2.916756686E0
5.802692917E0,3.873708449E0,1.294171257E0,-3.707470939E-1,4.100969373E0
5.812700917E0,5.177257470E0,9.742478693E-1,-8.750554106E-1,5.340306714E0
5.822709917E0,6.079873440E0,3.846158123E-1,-6.495975924E-1,6.126562445E0
5.832717917E0,6.633498343E0,-2.048466754E-1,-3.953068614E-1,6.648423117E0
5.842726917E0,6.037976385E0,-9.585334772E-1,-2.461432207E-1,6.118540001E0
5.852734917E0,4.570345137E0,-1.404952020E0,7.252216789E-1,4.836102908E0
5.862743917E0,2.982834274E0,-1.379638839E0,1.251878931E0,3.516803163E0
5.872751875E0,1.270559031E0,-1.221593277E0,1.864889325E0,2.566012974E0
5.882760875E0,1.474702871E-1,-1.267759969E0,2.596544988E0,2.893269552E0
5.892768875E0,-5.481998563E-1,-1.632116933E0,2.847308094E0,3.327385182E0
5.902777875E0,-8.997847474E-1,-2.140253422E0,2.323320973E0,3.284527005E0
5.912785875E0,-5.806238365E-1,-3.020482156E0,1.343821427E0,3.356529834E0
5.922794875E0,1.762222159E-1,-4.146686881E0,2.877137080E-1,4.160390070E0
5.932802875E0,1.191499413E0,-5.203843006E0,2.207733214E-2,5.338552265E0
5.942811875E0,2.036357170E0,-6.023179421E0,5.606362993E-1,6.382770083E0
5.952819875E0,2.328158374E0,-6.463059608E0,1.044752719E0,6.948594761E0
5.962828875E0,1.876652169E0,-6.600601323E0,1.566905276E0,7.038817609E0
5.972836875E0,8.300110924E-1,-6.139099302E0,2.481634337E0,6.673527376E0
5.982845875E0,-1.996303743E-1,-5.177895986E0,3.059258259E0,6.017434688E0
5.992853875E0,-4.650109345E-1,-4.800364076E0,2.272292614E0,5.331326679E0
6.002862875E0,4.579656243E-2,-5.280428667E0,6.951792696E-1,5.326189862E0
6.012870875E0,1.615178134E0,-6.602474771E0,-7.198608054E-1,6.835179082E0
6.022879875E0,4.214251458E0,-8.435438883E0,-4.004199591E-1,9.438054919E0
6.032887875E0,7.149195866E0,-1.047002435E1,1.826719433E0,1.280895449E1
6.042896875E0,1.008536527E1,-1.244445366E1,3.720121682E0,1.644440101E1
6.052904875E0,1.340474656E1,-1.485577055E1,4.964076759E0,2.061609097E1
6.062913875E0,1.635021128E1,-1.755701578E1,5.415022216E0,2.459472865E1
6.072921875E0,1.836064073E1,-1.972343491E1,5.115042511E0,2.742791775E1
6.082930875E0,1.925283462E1,-1.964182883E1,3.159890302E0,2.768497764E1
6.092938875E0,1.862295618E1,-1.484409366E1,-2.418759227E0,2.393766926E1
6.102946875E0,1.743348750E1,-8.307491865E0,-1.124558500E1,2.234735084E1
6.112955875E0,1.446068120E1,-3.083261372E0,-1.582214573E1,2.165544035E1
6.122963875E0,1.021351167E1,-1.483076084E-1,-1.151627132E1,1.539358051E1
6.132972875E0,6.393770687E0,1.702778195E0,-6.763407687E0,9.461682764E0
6.142980875E0,3.215262265E0,3.652431682E0,-5.236688570E0,7.148501648E0
6.152989875E0,-1.254302017E0,6.157213392E0,-1.238883260E1,1.389128229E1
6.162997875E0,-7.385750822E0,8.001243945E0,-2.495654089E1,2.722862745E1
6.173006875E0,-1.027286793E1,7.808119767E0,-2.204655240E1,2.554503909E1
6.183014875E0,-1.090386553E1,7.354344842E0,-1.383469701E1,1.908872737E1
6.193023875E0,-1.011150817E1,6.638336329E0,-7.719947848E0,1.434948436E1
6.203031875E0,-8.959196209E0,5.597527265E0,-2.894410924E0,1.095340690E1
6.213040875E0,-8.041897296E0,4.943657697E0,5.356517315E-1,9.455093142E0
6.223048875E0,-6.792487645E0,4.993153208E0,2.542981569E0,8.805465497E0
6.233057875E0,-5.529423575E0,5.394109064E0,4.273668525E0,8.828090412E0
6.243065875E0,-5.388841308E0,5.890748758E0,5.106247129E0,9.477040219E0
6.253074875E0,-5.635682101E0,6.447553377E0,5.148488585E0,9.991936349E0
6.263082875E0,-5.790877145E0,6.990040503E0,5.288069808E0,1.050517047E1
6.273091875E0,-5.698363084E0,7.314903619E0,5.179056659E0,1.062081846E1
6.283099875E0,-5.490667060E0,7.478019885E0,5.464352835E0,1.076695677E1
6.293108875E0,-5.458107424E0,7.578047034E0,6.186226691E0,1.120210401E1
6.303116875E0,-5.531375375E0,7.550240600E0,6.305870079E0,1.128566543E1
6.313125875E0,-5.632749723E0,7.174220780E0,6.098326668E0,1.097209649E1
6.323133875E0,-5.490322659E0,6.983783398E0,5.929053867E0,1.068038170E1
6.333142875E0,-5.365934840E0,7.153290086E0,5.505776850E0,1.050125681E1
6.343150875E0,-5.877569134E0,7.543671253E0,4.597587315E0,1.061087197E1
6.353159875E0,-6.121110343E0,7.335473539E0,3.517856845E0,1.018098623E1
6.363167875E0,-5.866808503E0,7.003221881E0,2.563062662E0,9.488616808E0
6.373176875E0,-5.914908283E0,6.800772564E0,1.805940621E0,9.192283122E0
6.383184875E0,-6.071503735E0,6.765450119E0,1.253984513E0,9.176434497E0
6.393193875E0,-6.113979664E0,6.896758702E0,8.101539481E-1,9.252155281E0
6.403201875E0,-6.118516518E0,7.121761900E0,4.382032049E-1,9.399348860E0
6.413210875E0,-6.046560683E0,7.289578743E0,9.973478794E-2,9.471473030E0
6.423218875E0,-6.071944615E0,7.384758550E0,-2.559413999E-1,9.563925776E0
6.433226875E0,-6.091176108E0,7.498371119E0,-6.771204364E-1,9.684342409E0
6.443235875E0,-6.173439415E0,7.566282436E0,-8.833441311E-1,9.805115041E0
6.453243875E0,-6.361314547E0,7.655957674E0,-1.322790454E0,1.004140355E1
6.463252875E0,-7.212234113E0,7.713127656E0,-5.791579396E0,1.204371417E1
6.473260875E0,-7.793438578E0,7.648324719E0,-7.160123727E0,1.305763867E1
6.483269875E0,-7.707628934E0,7.215521418E0,-5.113266127E0,1.173101801E1
6.493277875E0,-7.792853857E0,6.342474818E0,-4.884028376E0,1.117180788E1
6.503286875E0,-7.553854179E0,5.647346127E0,-4.352715279E0,1.038746175E1
6.513294875E0,-7.170404887E0,4.902507332E0,-4.590983469E0,9.824785677E0
6.523303875E0,-6.539559900E0,3.925766795E0,-5.875029688E0,9.627744411E0
6.533311875E0,-4.847490880E0,3.074249058E0,-8.399348699E0,1.017340816E1
6.543320875E0,-1.780911030E0,2.519450619E0,-1.221403594E1,1.259769619E1
6.553328875E0,1.306984261E0,1.653669770E0,-1.426235768E1,1.441727014E1
6.563337875E0,3.237905023E0,-1.052335095E-1,-1.187190015E1,1.230597888E1
6.573345875E0,1.969169154E0,-2.702470808E0,4.825824022E-1,3.378440676E0
6.583354875E0,1.737834007E0,-2.827654433E0,1.268645822E1,1.311342513E1
6.593362875E0,2.016679536E0,-2.886505489E0,1.386319400E1,1.430339324E1
6.603371875E0,2.323464230E0,-3.778583606E0,8.212718439E0,9.334073294E0
6.613379875E0,3.720452927E0,-5.203549476E0,5.156816189E0,8.216535178E0
6.623388875E0,2.801141403E0,-5.803455091E0,1.342672975E1,1.489307074E1
6.633396875E0,4.931829364E0,-1.579715706E1,8.588785037E0,1.864511573E1
6.643405875E0,1.377358425E1,-2.848144597E1,-7.066415080E0,3.241664093E1
6.653413875E0,2.849839587E1,-3.329817172E1,-2.394966672E1,4.994510330E1
6.663422875E0,3.901680944E1,-2.976481157E1,-1.594651483E1,5.159987172E1
6.673430875E0,2.977074766E1,-2.170848042E1,8.703863504E0,3.785911751E1
6.683439875E0,1.577144452E1,-1.258348407E1,6.287821478E0,2.113336775E1
6.693447875E0,3.322813611E0,-7.899040462E0,-1.067642814E0,8.635727630E0
6.703456875E0,-4.447529635E0,-7.661846990E0,8.364371824E-1,8.898541808E0
6.713464875E0,-7.853965446E0,-5.687787809E0,5.921606854E0,1.136226787E1
6.723473875E0,-1.099365771E1,-1.149030501E0,4.968499008E0,1.211885982E1
6.733481875E0,-1.318141801E1,2.062936859E0,2.672162935E0,1.360683446E1
6.743490875E0,-1.380139127E1,4.052196461E0,2.890515509E0,1.467152947E1
6.753498875E0,-1.369422934E1,5.781132760E0,2.914245265E0,1.514748292E1
6.763506875E0,-1.248522746E1,7.676973152E0,1.778356381E0,1.476412452E1
6.773515875E0,-8.537136582E0,8.566089655E0,1.475740167E0,1.218352995E1
6.783523875E0,-2.662739562E0,5.475353787E0,9.953381914E-1,6.169309458E0
6.793532875E0,3.351891814E0,1.293186586E0,-1.626336960E0,3.943663549E0
6.803540875E0,8.202282329E0,-2.555060747E0,-2.754579440E0,9.021833445E0
6.813549875E0,1.175250585E1,-6.574033914E0,-1.856519036E0,1.359360065E1
6.823557875E0,1.396360823E1,-9.474149382E0,-2.278817230E0,1.702747395E1
6.833566875E0,1.444808513E1,-8.994811599E0,-2.104684224E0,1.714886280E1
6.843574875E0,1.139049771E1,-6.198967774E0,-2.021300590E-1,1.296963747E1
6.853583875E0,6.391110789E0,-3.441385204E0,1.511560210E0,7.414461781E0
6.863591875E0,1.772907361E0,-1.291732383E0,1.665554236E0,2.754241088E0
6.873600375E0,-1.482754487E0,2.087432599E-1,1.754060615E0,2.306266086E0
6.883608375E0,-3.477591748E0,1.014053959E0,1.759469875E0,4.027118578E0
6.893617375E0,-4.373101596E0,8.724870211E-1,9.927081138E-1,4.568448377E0
6.903625375E0,-4.407194372E0,4.932418764E-2,4.304854649E-1,4.428443614E0
6.913634375E0,-3.227686429E0,-1.000588406E0,1.329130590E-2,3.379247476E0
6.923642375E0,-1.215952469E0,-1.966630293E0,-2.433125836E-1,2.324946479E0
6.933651375E0,7.887952387E-1,-2.722057811E0,-2.284694266E-1,2.843236700E0
6.943659375E0,2.385079265E0,-3.047202762E0,6.438152808E-1,3.922823714E0
6.953668375E0,3.257008461E0,-3.043407335E0,1.488072529E0,4.699445943E0
6.963676375E0,3.658206977E0,-2.909023116E0,1.743942009E0,4.988609777E0
6.973685375E0,3.872268280E0,-2.737914290E0,2.003784086E0,5.148377119E0
6.983693375E0,3.957893736E0,-2.510334225E0,2.305774648E0,5.223341601E0
6.993702375E0,3.888276787E0,-2.378888233E0,2.613281474E0,5.254240731E0
7.003710375E0,3.870114750E0,-2.446687283E0,2.983666917E0,5.465010074E0
7.013719375E0,3.640629662E0,-2.537419113E0,3.282412859E0,5.519684255E0
7.023727375E0,3.733457719E0,-2.631193834E0,3.399384654E0,5.693654675E0
7.033735375E0,4.394597130E0,-2.888554938E0,3.009490853E0,6.059147527E0
7.043744375E0,5.476721451E0,-3.116295217E0,1.898420184E0,6.581016101E0
7.053752375E0,6.195740696E0,-3.137900679E0,1.101844640E0,7.031904795E0
7.063761375E0,5.941276302E0,-2.913550615E0,1.600744282E0,6.808077816E0
7.073769375E0,4.865622511E0,-2.430403957E0,2.687468899E0,6.066599945E0
7.083778375E0,3.449557273E0,-1.611220154E0,3.430167029E0,5.124599653E0
7.093786375E0,2.221043231E0,-6.054873669E-1,3.604718110E0,4.277106573E0
7.103795375E0,1.206656565E0,6.644846034E-1,3.310749636E0,3.585892219E0
7.113803375E0,3.901847005E-2,1.874322054E0,2.588004545E0,3.195680386E0
7.123812375E0,-8.951303637E-1,3.090443507E0,1.800608983E0,3.687043822E0
7.133820375E0,-1.889258181E0,3.946242574E0,1.028833966E0,4.494510681E0
7.143829375E0,-2.884448438E0,4.630801254E0,2.616418870E-1,5.461942834E0
7.153837375E0,-3.739910122E0,5.304371846E0,-8.585256243E-1,6.546782007E0
7.163846375E0,-4.325403519E0,5.992517207E0,-2.118051544E0,7.688011474E0
7.173854375E0,-4.681458607E0,6.483766353E0,-2.468114405E0,8.369400786E0
7.183863375E0,-5.145864939E0,6.770575789E0,-1.929120405E0,8.720213760E0
7.193871375E0,-5.661247882E0,6.998676256E0,-1.587598133E0,9.140659974E0
7.203880375E0,-6.313569692E0,7.326364161E0,-2.388117770E0,9.961921530E0
7.213888375E0,-7.444259816E0,7.968936324E0,-8.954392136E0,1.411035396E1
7.223897375E0,-8.407551173E0,7.138643981E0,-9.761431857E0,1.472863560E1
7.233905375E0,-7.738887565E0,6.361706895E0,-4.344016961E0,1.091934882E1
7.243914375E0,-7.102073155E0,5.747655112E0,-3.281358606E0,9.707847170E0
7.253922375E0,-6.013931465E0,2.301630142E0,-7.875418881E0,1.017286073E1
7.263931375E0,-3.568394914E0,-2.922743023E0,-8.589007232E0,9.749200699E0
7.273939375E0,-2.001544018E0,-5.075156314E0,-4.145388215E0,6.851834318E0
7.283947375E0,1.013544667E-1,-6.113898972E0,-8.407699692E-1,6.172270855E0
7.293956375E0,3.820443823E0,-8.406512123E0,1.067069567E0,9.295368445E0
7.303964375E0,7.252404485E0,-1.031207468E1,2.234964282E0,1.280356670E1
7.313973375E0,8.604204145E0,-1.117562189E1,2.863879688E0,1.439196514E1
7.323981375E0,7.879974446E0,-9.959786954E0,3.188539320E0,1.309420240E1
7.333990375E0,5.221669412E0,-7.651043090E0,3.130803328E0,9.777843386E0
7.343998375E0,2.301776322E0,-5.600902278E0,2.993325933E0,6.754870887E0
7.354007375E0,7.666360456E-1,-3.477937903E0,2.932273400E0,4.613242913E0
7.364015375E0,3.580074728E-2,-1.639977345E0,2.885769324E0,3.319408378E0
7.374024375E0,-8.326388311E-1,3.874540508E-2,3.136047696E0,3.244932015E0
7.384032375E0,-2.190539476E0,1.602405476E0,3.762386234E0,4.639150426E0
7.394041375E0,-2.817673236E0,2.480950212E0,3.703908230E0,5.273834714E0
7.404049375E0,-2.575930045E0,2.709724279E0,3.179582555E0,4.907928941E0
7.414058375E0,-2.264220825E0,2.884481183E0,2.813861436E0,4.622201188E0
7.424066375E0,-1.939256553E0,3.326828894E0,2.657463620E0,4.678741215E0
7.434075375E0,-1.429169433E0,3.679200820E0,2.998055745E0,4.956549424E0
7.444083375E0,-8.215612811E-1,3.462621707E0,3.587717038E0,5.053357851E0
7.454092375E0,-8.633472383E-2,3.075919608E0,4.089348500E0,5.117763796E0
7.464100375E0,4.891546726E-1,2.682567471E0,4.252044936E0,5.051269808E0
7.474109375E0,7.285993230E-1,2.089993680E0,4.175079206E0,4.725485894E0
7.484117375E0,9.162791580E-1,1.494662341E0,3.754975473E0,4.144082988E0
7.494126375E0,7.739573443E-1,1.172093673E0,3.161594181E0,3.459550739E0
7.504134375E0,5.619454908E-1,7.948178709E-1,2.605024036E0,2.780947394E0
7.514143375E0,5.752139926E-1,1.596149540E-1,1.886425205E0,1.978622785E0
7.524151375E0,8.612170976E-1,-4.670042503E-1,1.138159869E0,1.501730917E0
7.534159375E0,1.044217406E0,-9.927361804E-1,2.223930001E-1,1.457866167E0
7.544168375E0,9.605238694E-1,-1.562285975E0,-1.497262598E0,2.367517447E0
7.554176375E0,6.036840856E-1,-1.762634388E0,-4.277266316E0,4.665439058E0
7.564185375E0,4.704780811E-1,-1.140589460E0,-8.653062894E0,8.740583012E0
7.574193375E0,1.078567459E0,3.122986186E-1,-9.746791599E0,9.811258057E0
7.584202375E0,1.716431444E0,1.790003450E0,-8.529936905E0,8.883134180E0
7.594210375E0,2.182879039E0,2.658292170E0,-6.530561619E0,7.381037409E0
7.604219375E0,2.525684921E0,3.036128136E0,-4.077154716E0,5.676297117E0
7.614227375E0,3.254396510E0,3.285518900E0,-1.807407687E0,4.965123728E0
7.624236375E0,4.305829965E0,3.495788868E0,1.855884321E-1,5.549338209E0
7.634244375E0,5.239329173E0,3.442599671E0,1.758478187E0,6.511091169E0
7.644253375E0,5.962413402E0,3.039689675E0,2.601757196E0,7.180475430E0
7.654261375E0,6.420417033E0,2.219235857E0,3.123037641E0,7.476638735E0
7.664270375E0,6.348155388E0,1.287330599E0,3.125774723E0,7.192132126E0
7.674278375E0,5.707113442E0,3.993525499E-1,2.618873751E0,6.291989035E0
7.684287375E0,4.289254863E0,-2.023838282E-2,1.519528795E0,4.550503778E0
7.694295375E0,2.886896083E0,-2.329355299E-1,2.001208095E-1,2.903183820E0
7.704304375E0,1.745145950E0,-5.499663001E-1,-9.259833433E-1,2.050717550E0
7.714312375E0,8.335153288E-1,-9.319157821E-1,-1.660142053E0,2.078289312E0
7.724321375E0,3.075460017E-1,-1.283220007E0,-1.949826419E0,2.354370657E0
7.734329375E0,2.169375479E-1,-1.099297593E0,-2.280607501E0,2.541001313E0
7.744338375E0,7.465251321E-1,-3.003194278E-1,-2.727103958E0,2.843340910E0
7.754346375E0,1.243475313E0,1.638091618E-1,-3.332399536E0,3.560611038E0
7.764355375E0,1.517172952E0,4.299995613E-1,-4.069836341E0,4.364662786E0
7.774363375E0,1.473597747E0,4.802984798E-1,-4.688774058E0,4.938297188E0
7.784371375E0,1.100027910E0,-1.962261254E-1,-4.944338897E0,5.069028825E0
7.794380375E0,2.351709205E-1,-1.705913472E0,-4.446696407E0,4.768496101E0
7.804388375E0,-4.435803044E-1,-3.059177275E0,-3.293823116E0,4.517145095E0
7.814397375E0,-3.247800851E-1,-4.058661143E0,-2.171589235E0,4.614543551E0
7.824405375E0,-3.240275484E-1,-4.875609555E0,-1.372147386E0,5.075367064E0
7.834414375E0,-4.020498705E-1,-5.381383184E0,-8.083342215E-1,5.456586230E0
7.844422375E0,-7.729457760E-1,-5.444269989E0,-1.235867500E-2,5.498879306E0
7.854431375E0,-1.428164297E0,-5.097647629E0,6.974384876E-1,5.339670875E0
7.864439375E0,-2.037221974E0,-4.296648667E0,1.599344605E0,5.016908042E0
7.874448792E0,-2.521692442E0,-3.194776545E0,2.592441705E0,4.825586383E0
7.884456792E0,-2.560360079E0,-2.174839118E0,4.604614791E0,5.699811075E0
7.894465792E0,-2.273893874E0,-1.272622513E0,6.910676830E0,7.385635765E0
7.904473792E0,-2.019318969E0,-2.916877681E-1,7.151818342E0,7.437152442E0
7.914482792E0,-1.852260509E0,4.172730964E-1,6.081493703E0,6.370992975E0
7.924490792E0,-1.065320592E0,8.064473981E-1,4.290082244E0,4.493336291E0
7.934499792E0,5.198174715E-2,1.036990247E0,2.066064827E0,2.312287772E0
7.944507792E0,1.330167301E0,1.065759718E0,-2.119992819E-1,1.717594982E0
7.954516792E0,2.431982705E0,9.661676019E-1,-1.148268316E0,2.857715843E0
7.964524792E0,3.041064355E0,8.725121641E-1,-4.836363629E-1,3.200508400E0
7.974533792E0,3.162126862E0,7.816212898E-1,8.652151313E-1,3.370248560E0
7.984541792E0,2.124672346E0,5.544014132E-1,1.744604498E0,2.804503229E0
7.994550792E0,2.402989286E-1,3.341771454E-1,1.738663727E0,1.786720318E0
8.004558792E0,-1.382550752E0,2.965988445E-1,1.948622623E0,2.407602040E0
8.014566792E0,-2.680794595E0,2.682486194E-1,2.000070812E0,3.355428472E0
8.024575792E0,-3.671288368E0,2.142846662E-1,1.939055409E0,4.157428542E0
8.034583792E0,-4.322627846E0,8.351812005E-2,1.917794640E0,4.729695873E0
8.044592792E0,-4.588417711E0,5.223727047E-2,1.994736105E0,5.003526552E0
8.054600792E0,-4.637174719E0,1.235101515E-1,2.044948484E0,5.069561957E0
8.064609792E0,-4.546135910E0,2.079316664E-1,2.217125012E0,5.062235732E0
8.074617792E0,-4.373267072E0,4.065949112E-1,2.175978155E0,4.901598233E0
8.084626792E0,-4.068752267E0,7.963235289E-1,1.959651057E0,4.585750586E0
8.094634792E0,-3.686650173E0,1.085428582E0,1.611397324E0,4.167270814E0
8.104643792E0,-3.402214122E0,1.192470050E0,1.416217266E0,3.873334106E0
8.114651792E0,-3.266831199E0,9.326080924E-1,1.108517482E0,3.573619306E0
8.124660792E0,-3.037840201E0,4.118170595E-1,7.518422976E-1,3.156474808E0
8.134668792E0,-2.759291126E0,-2.604057491E-1,2.829727855E-1,2.785959847E0
8.144677792E0,-2.434775335E0,-8.862659848E-1,-2.810233238E-1,2.606256403E0
8.154685792E0,-2.287178164E0,-1.355637773E0,-9.628136390E-1,2.827710704E0
8.164694792E0,-2.079712520E0,-1.680347106E0,-1.452695705E0,3.042876169E0
8.174702792E0,-1.933352619E0,-1.790170096E0,-2.082451356E0,3.358446810E0
8.184711792E0,-1.501148073E0,-1.675996778E0,-2.689311649E0,3.506395283E0
8.194719792E0,-1.069501936E0,-1.118862376E0,-2.900566288E0,3.287700138E0
8.204728792E0,-4.393685549E-1,-3.896490955E-1,-2.840447848E0,2.900519802E0
8.214736792E0,2.104582483E-1,3.479818368E-1,-2.668879724E0,2.699685725E0
8.224745792E0,7.974818623E-1,9.158926570E-1,-2.314530854E0,2.613788391E0
8.234753792E0,1.353846771E0,1.323728347E0,-2.198416260E0,2.901412048E0
8.244762792E0,2.256374447E0,1.653140597E0,-1.852248815E0,3.354836084E0
8.254770792E0,2.517981214E0,1.606537703E0,-1.175652874E0,3.209883559E0
8.264778792E0,2.255862231E0,1.244509685E0,-1.015925361E0,2.769444547E0
8.274787792E0,2.218950512E0,1.111152822E0,-1.028990672E0,2.686489117E0
8.284795792E0,1.684033191E0,8.632185996E-1,-9.664769197E-1,2.124898062E0
8.294804792E0,6.346486008E-1,3.224265808E-1,-4.719591808E-1,8.540978954E-1
8.304812792E0,-8.695271605E-1,-5.722196335E-1,-5.831662059E-2,1.042551495E0
8.314821792E0,-2.414668515E0,-1.442178903E0,6.162672937E-2,2.813236904E0
8.324829792E0,-3.443569724E0,-2.238528160E0,-9.997955239E-1,4.227147011E0
8.334838792E0,-3.995010692E0,-2.985525747E0,-2.252838343E0,5.472545570E0
8.344846792E0,-3.562834212E0,-3.795813596E0,-3.319920409E0,6.174452203E0
8.354855792E0,-1.001279547E0,-4.469115216E0,-3.636801490E0,5.848237053E0
8.364863792E0,1.620857534E0,-4.457174617E0,-4.546091471E0,6.569667600E0
8.374872792E0,2.508019313E0,-3.560152679E0,-2.505929518E0,5.024393567E0
8.384880792E0,2.897808157E0,-2.255113787E0,-1.601029041E-1,3.675386135E0
8.394889792E0,2.767819290E0,-2.188317534E0,3.404161245E-1,3.544776494E0
8.404897792E0,1.452041402E0,-3.782800618E0,-7.386761221E-1,4.118694837E0
8.414906792E0,-4.460460752E-1,-5.601935481E0,-2.750594562E-1,5.626392800E0
8.424914792E0,-2.586307098E0,-5.726004626E0,3.099172523E0,7.005782163E0
8.434923792E0,-5.002345031E0,-4.388975617E0,5.797625417E0,8.826042332E0
8.444931792E0,-7.039300956E0,-3.346382568E0,4.417930152E0,8.959248912E0
8.454940792E0,-8.275198862E0,-2.878070295E0,2.703321578E0,9.168977718E0
8.464948792E0,-8.663782595E0,-2.490584085E0,2.520758641E0,9.360468047E0
8.474957792E0,-8.293402414E0,-1.724077848E0,2.763024866E0,8.909953672E0
8.484965792E0,-6.933975645E0,-5.671576989E-1,3.064592382E0,7.602197878E0
8.494974792E0,-5.139152920E0,3.281515896E-1,3.871125441E0,6.442374437E0
8.504982792E0,-3.338678277E0,6.097336149E-1,5.290647261E0,6.285657973E0
8.514991792E0,-1.631774871E0,5.981643140E-1,6.750818047E0,6.970942123E0
8.524999792E0,-1.012340140E-1,3.275043029E-1,7.075703382E0,7.084002099E0
8.535007792E0,1.431133513E0,4.622574806E-2,6.414113150E0,6.571995698E0
8.545016792E0,3.021735215E0,-3.813600826E-1,5.899459355E0,6.639272543E0
8.555024792E0,4.359008052E0,-9.119183046E-1,4.725182331E0,6.493065090E0
8.565033792E0,6.160767329E0,-1.238081256E0,2.796870596E0,6.878254460E0
8.575041792E0,8.324366929E0,-1.200660830E0,6.987647822E-1,8.439487154E0
8.585050792E0,9.102169402E0,-2.389277565E-1,-6.542025670E-1,9.128776221E0
8.595058792E0,7.917604787E0,1.325299494E0,-1.019648283E0,8.092253514E0
8.605067792E0,5.583933658E0,2.200875599E0,-2.557282689E-1,6.007459151E0
8.615075792E0,3.375930303E0,2.413217821E0,1.142848824E0,4.304257090E0
8.625084792E0,1.640695968E0,2.011154501E0,1.980248751E0,3.264660902E0
8.635092792E0,1.260022348E-1,1.308013955E0,2.037481882E0,2.424481283E0
8.645101792E0,-1.360266429E0,7.082223612E-1,1.753874966E0,2.329802796E0
8.655109792E0,-2.331269093E0,5.633651948E-1,1.118413895E0,2.646326807E0
8.665118792E0,-2.957200080E0,5.299237990E-1,2.329144800E-1,3.013320544E0
8.675126792E0,-3.375934981E0,4.265707541E-1,5.171049482E-1,3.441845018E0
8.685135792E0,-3.137059849E0,6.364828724E-1,9.068861908E-1,3.326965210E0
8.695143792E0,-2.552731217E0,8.424446118E-1,4.179034263E-1,2.720439829E0
8.705152792E0,-1.626159790E0,8.172132915E-1,2.380810797E-2,1.820109901E0
8.715160792E0,-6.979002714E-1,6.546200582E-1,2.965777946E-1,1.001773726E0
8.725169792E0,-1.762953061E-1,6.377616584E-1,1.484084728E-1,6.781187527E-1
8.735177792E0,5.411685795E-1,7.518259254E-1,-3.215582693E-1,9.805638042E-1
8.745185792E0,1.415648332E0,8.151644272E-1,-3.558431259E-1,1.671878456E0
8.755194792E0,1.754934774E0,9.519869345E-1,-9.217676470E-1,2.199029509E0
8.765202792E0,1.255736924E0,1.093537793E0,-1.603351555E0,2.311587406E0
8.775211792E0,4.412694848E-1,1.506933601E0,-1.483598240E0,2.160238730E0
8.785219792E0,-4.880249906E-1,1.909265599E0,-3.087277240E-1,1.994687025E0
8.795228792E0,-1.707305694E0,2.222964041E0,-3.023124513E-1,2.819193977E0
8.805236792E0,-2.411687019E0,2.086891732E0,-8.970605296E-1,3.313015088E0
8.815245792E0,-2.172088003E0,1.165594493E0,-1.420253014E0,2.844942080E0
8.825253792E0,-1.451306407E0,-2.711529315E-2,-1.905890294E0,2.395713534E0
8.835262792E0,-8.486233646E-1,-1.088101344E0,-2.684939686E0,3.018779102E0
8.845270792E0,-3.544757545E-1,-2.069107425E0,-2.946341216E0,3.617704405E0
8.855279792E0,1.637886965E-1,-2.525556867E0,-2.830676858E0,3.797103594E0
8.865287792E0,7.519010621E-1,-2.576563590E0,-1.730319458E0,3.193437109E0
8.875296667E0,1.027084479E0,-2.619470459E0,-5.381350440E-1,2.864632147E0
8.885304667E0,8.610633159E-1,-2.959548907E0,1.577760047E-1,3.086300866E0
8.895313667E0,4.872022873E-1,-3.342928033E0,1.168794967E0,3.574718951E0
8.905321667E0,2.898154896E-1,-3.711683273E0,2.183906687E0,4.316252327E0
8.915330667E0,5.328906763E-1,-3.858357169E0,2.444511242E0,4.598535389E0
8.925338667E0,1.134475611E0,-3.530032502E0,2.086046809E0,4.254380762E0
8.935347667E0,1.791764631E0,-3.048849923E0,1.390944138E0,3.800083149E0
8.945355667E0,2.405891844E0,-2.890086908E0,1.499010039E0,4.048203182E0
8.955363667E0,2.617133034E0,-2.655936327E0,1.586113671E0,4.052053760E0
8.965372667E0,2.119998082E0,-2.250190431E0,1.104674985E0,3.282994923E0
8.975380667E0,1.139757986E0,-2.344397262E0,1.701875385E0,3.113137744E0
8.985389667E0,3.006158817E-1,-2.698366647E0,2.882629369E0,3.959937443E0
8.995397667E0,5.863938689E-2,-3.453015901E0,3.330533397E0,4.797833897E0
9.005406667E0,9.760996825E-1,-4.997768415E0,2.335580245E0,5.602266934E0
9.015414667E0,2.795160286E0,-7.321050797E0,9.399720758E-2,7.837062030E0
9.025423667E0,4.952187030E0,-9.900084543E0,-1.112274026E0,1.112533073E1
9.035431667E0,7.639368539E0,-1.224872162E1,1.094722731E0,1.447720798E1
9.045440667E0,1.088176422E1,-1.452736402E1,3.709874729E0,1.852620491E1
9.055448667E0,1.510566417E1,-1.696726327E1,4.924624425E0,2.324480670E1
9.065457667E0,1.925285567E1,-1.873805277E1,5.800405183E0,2.748511912E1
9.075465667E0,2.104171540E1,-1.797698620E1,6.142919873E0,2.834892034E1
9.085474667E0,1.930610509E1,-1.499253926E1,4.912869768E0,2.493267368E1
9.095482667E0,1.753617630E1,-1.135961740E1,2.745279443E0,2.107356035E1
9.105491667E0,1.603991124E1,-7.208429330E0,-3.389158751E-1,1.758849254E1
9.115499667E0,1.500199772E1,-2.739736868E0,-4.039583432E0,1.577606820E1
9.125508667E0,1.363615012E1,9.727574140E-1,-8.312272548E0,1.599952256E1
9.135516667E0,1.105233218E1,4.568390998E0,-1.281419415E1,1.752791530E1
9.145525667E0,7.259034643E0,7.496041004E0,-1.372865073E1,1.724413134E1
9.155533667E0,3.410490271E0,8.689448363E0,-1.259982587E1,1.568099387E1
9.165542667E0,-2.100588834E-1,8.754541907E0,-1.213576043E1,1.496538706E1
9.175550667E0,-3.351740372E0,8.182522833E0,-1.237124652E1,1.520643232E1
9.185558667E0,-6.158686890E0,7.420034802E0,-1.536433096E1,1.813970800E1
9.195567667E0,-9.001427139E0,5.621532424E0,-1.653753034E1,1.964986583E1
9.205575667E0,-9.667133226E0,3.066795613E0,-1.463124565E1,1.780258547E1
9.215584667E0,-8.935001600E0,1.038284236E0,-9.762845714E0,1.327499319E1
9.225592667E0,-9.125640711E0,5.368077260E-1,-3.876801041E0,9.929504883E0
9.235601667E0,-8.670085893E0,9.411619842E-1,1.832697480E0,8.911506906E0
9.245609667E0,-7.542589518E0,1.411385127E0,6.682339550E0,1.017528017E1
9.255618667E0,-6.441201546E0,2.727229089E0,8.770465629E0,1.121819608E1
9.265626667E0,-6.661316471E0,3.919388652E0,7.152984277E0,1.053090350E1
9.275635667E0,-7.423233814E0,4.700026440E0,6.161529222E0,1.073122039E1
9.285643667E0,-7.524477183E0,5.232377418E0,5.882788943E0,1.089048833E1
9.295652667E0,-7.538370168E0,5.483355702E0,5.530383103E0,1.083878922E1
9.305660667E0,-7.506106401E0,5.660684211E0,5.342560011E0,1.081332171E1
9.315669667E0,-7.683719085E0,5.721751946E0,5.734711715E0,1.116534383E1
9.325677667E0,-8.283638148E0,5.436675625E0,6.165733370E0,1.167014871E1
9.335686667E0,-8.785246806E0,4.956184772E0,6.696314396E0,1.210722740E1
9.345694667E0,-9.025097253E0,4.620331230E0,7.266118544E0,1.247382539E1
9.355703667E0,-9.113598955E0,4.358661897E0,7.694294944E0,1.269873199E1
9.365711667E0,-9.470667949E0,4.130647384E0,7.498761714E0,1.276664507E1
9.375720667E0,-9.750707479E0,4.176024116E0,6.384604007E0,1.238057519E1
9.385728667E0,-9.457102994E0,4.496146309E0,4.836389356E0,1.153441766E1
9.395736667E0,-8.904345818E0,4.918012978E0,3.581350298E0,1.078426150E1
9.405745667E0,-8.384209088E0,5.354280170E0,2.566398791E0,1.027373744E1
9.415753667E0,-8.021072438E0,5.641867286E0,1.819875559E0,9.973976969E0
9.425762667E0,-7.838654512E0,5.859546261E0,1.266984043E0,9.868334992E0
9.435770667E0,-7.859434347E0,6.013389428E0,8.839140885E-1,9.935434806E0
9.445779667E0,-7.826297007E0,6.169023013E0,5.091394325E-1,9.978326149E0
9.455787667E0,-7.792124124E0,6.400466918E0,2.532711227E-1,1.008698773E1
9.465796667E0,-7.883756425E0,6.592316988E0,1.077678390E-1,1.027734754E1
9.475804667E0,-8.114923173E0,6.812806719E0,-4.605686586E-1,1.060558518E1
9.485813667E0,-8.561914743E0,7.272748117E0,-2.849060504E0,1.158949503E1
9.495821667E0,-8.988405975E0,7.442643061E0,-6.676237396E0,1.344457227E1
9.505830667E0,-8.832869453E0,7.055354487E0,-6.799773860E0,1.319221491E1
9.515838667E0,-8.404733984E0,6.085900750E0,-6.463499318E0,1.222516113E1
9.525847667E0,-7.853150344E0,4.805607274E0,-7.167382461E0,1.166778483E1
9.535855667E0,-6.447690786E0,4.167010049E0,-8.052525780E0,1.112563979E1
9.545864667E0,-4.328814785E0,4.168844905E0,-8.988708276E0,1.081271389E1
9.555872667E0,-1.283537511E0,4.162572597E0,-1.084840586E1,1.169026898E1
9.565881667E0,1.584412424E0,4.175448166E0,-9.716394264E0,1.069359844E1
9.575889667E0,2.591551466E0,3.500888225E0,-7.009475479E-1,4.411766634E0
9.585898667E0,3.288258321E0,2.278252974E0,4.286188290E0,5.862976160E0
9.595906667E0,4.890843306E0,2.085421742E0,8.320822932E0,9.874483599E0
9.605914667E0,7.779242708E0,1.898278681E0,1.211961627E1,1.452601726E1
9.615923667E0,1.083225585E1,8.535414577E-2,6.926584765E0,1.285778475E1
9.625931667E0,1.406445750E1,-3.376179979E0,6.006648758E0,1.566165334E1
9.635940667E0,1.867643247E1,-1.916998659E1,-9.804406554E0,2.850305078E1
9.645948667E0,3.466953090E1,-4.141359717E1,-4.655643384E1,7.130612831E1
9.655957667E0,4.719003345E1,-4.166203367E1,-2.426632854E1,6.746465005E1
9.665965667E0,3.517598866E1,-3.467924196E1,1.052306327E1,5.050480038E1
9.675974667E0,1.114592739E1,-2.770452876E1,2.107104504E1,3.654807177E1
9.685982667E0,-5.837833210E0,-1.971521138E1,1.518436068E1,2.556041208E1
9.695991667E0,-1.139387740E1,-1.012784763E1,9.662955975E0,1.804900158E1
9.705999667E0,-1.545740109E1,-3.204416557E0,8.001867843E0,1.769828870E1
9.716008667E0,-1.855977818E1,1.143661880E0,5.787579315E0,1.947484025E1
9.726016667E0,-2.124923542E1,4.487450915E0,3.304464464E0,2.196785623E1
9.736025667E0,-2.209483636E1,6.893898829E0,2.600631022E-1,2.314681982E1
9.746033667E0,-1.438627187E1,5.769457040E0,-2.150459152E0,1.564851199E1
9.756042667E0,-1.120827041E0,1.641986448E0,-3.087395938E0,3.672109262E0
9.766050667E0,8.800712691E0,-8.609232751E-1,4.248206824E-1,8.852920725E0
9.776059667E0,1.485195699E1,-1.860679330E0,4.314521266E0,1.557747887E1
9.786067667E0,1.532456522E1,-1.243767673E0,4.603776008E0,1.604942400E1
9.796076667E0,7.972378580E0,-1.566084619E0,1.637257805E0,8.288066987E0
9.806084667E0,-1.218163885E0,-2.166983676E0,-2.360775313E0,3.428265098E0
9.816093667E0,-5.934402316E0,-1.436605045E0,-1.272863418E0,6.237078337E0
9.826101667E0,-7.182190534E0,-2.309863606E-1,-1.005777225E0,7.255949517E0
9.836109667E0,-5.428881871E0,1.316839743E-1,-2.063383001E0,5.809272626E0
9.846118667E0,-1.986571053E0,2.221216893E-1,-3.052483383E0,3.648761077E0
9.856126667E0,1.440668567E0,8.473475021E-1,-2.672015585E0,3.151696527E0
9.866135667E0,3.520614392E0,2.052498117E0,-1.455188958E0,4.327244980E0
9.876143750E0,3.843341519E0,3.054118557E0,-2.776392478E-1,4.916909369E0
9.886152750E0,2.923813064E0,3.344858491E0,1.149866068E0,4.589003501E0
9.896160750E0,1.377064310E0,2.941332783E0,3.891088128E-2,3.247962240E0
9.906169750E0,7.327449989E-1,1.497212020E0,-1.807115911E0,2.458500962E0
9.916177750E0,-2.543515420E-1,-4.208360973E-1,-2.153673951E0,2.209096923E0
9.926186750E0,-1.385314146E0,-1.529046016E0,-2.317388973E0,3.102800131E0
9.936194750E0,-2.364115827E0,-1.887070446E0,-2.043794244E0,3.650640139E0
9.946203750E0,-2.168869110E0,-1.347976166E0,-2.217249557E0,3.381897184E0
9.956211750E0,-1.183848331E0,-5.484813997E-1,-2.208588662E0,2.565188608E0
9.966220750E0,-1.650610507E-1,-9.235706359E-2,-1.975395269E0,1.984429754E0
9.976228750E0,3.587278497E-1,-2.145021826E-2,-1.430967452E0,1.475402871E0
9.986237750E0,8.996391517E-1,2.256075069E-1,-1.717307357E0,1.951766868E0
9.996245750E0,1.675978067E0,2.595266202E-1,-2.328696903E0,2.880813394E0
1.000625475E1,1.695181493E0,1.919480100E-1,-1.249242421E0,2.114495438E0
1.001626275E1,1.245921788E0,5.465907025E-1,-7.053010923E-1,1.532492130E0
1.002627175E1,9.891038901E-1,7.507327884E-1,-1.108771836E0,1.664722562E0
1.003627975E1,7.105255795E-1,5.777651328E-1,-1.159815690E0,1.477779274E0
1.004628875E1,5.021588802E-1,3.670346966E-1,-1.239410913E0,1.386729037E0
1.005629675E1,1.840107071E-1,5.474017113E-2,-1.247656072E0,1.262339930E0
1.006630475E1,8.150024593E-2,2.386804193E-2,-1.074484933E0,1.077835723E0
1.007631375E1,2.498515248E-2,4.465635538E-2,-8.059772819E-1,8.076000414E-1
1.008632175E1,-1.061445057E-2,9.275408953E-2,-8.395239276E-1,8.446990071E-1
1.009633075E1,1.696511149E-2,1.110690308E-1,-7.640784734E-1,7.722953180E-1
1.010633875E1,-7.244057000E-2,7.795917213E-2,-6.568288440E-1,6.653941681E-1
1.011634775E1,-1.708141261E-1,7.820592463E-2,-5.204676819E-1,5.533355584E-1
1.012635575E1,-1.491858602E-1,-5.074359924E-2,-5.494903368E-1,5.716388405E-1
1.013636475E1,-2.246605504E-1,-2.261042279E-1,-7.493224400E-1,8.142969998E-1
1.014637275E1,-2.402556592E-1,-4.615020204E-1,-7.420555204E-1,9.062854363E-1
1.015638175E1,-2.215480775E-1,-6.977277786E-1,-5.093410152E-1,8.918160536E-1
1.016638975E1,-1.276938343E-1,-9.454953557E-1,-3.477222204E-1,1.015469313E0
1.017639875E1,4.017329514E-2,-1.118302213E0,-3.423717257E-1,1.170227385E0
1.018640675E1,3.795375055E-1,-1.277448220E0,-4.604843125E-1,1.409953359E0
1.019641575E1,9.549479645E-1,-1.553078365E0,-8.794001842E-1,2.024184455E0
1.020642375E1,1.701911053E0,-2.084269840E0,-1.057715996E0,2.891270504E0
1.021643275E1,3.032735581E0,-3.315330929E0,-1.898965144E0,4.878009112E0
1.022644075E1,4.870241227E0,-4.901870570E0,-4.014492445E0,7.991478855E0
1.023644975E1,7.508587375E0,-6.341175567E0,-6.852764837E0,1.198122606E1
1.024645775E1,1.132825995E1,-7.956826741E0,-9.487966937E0,1.678279124E1
1.025646675E1,1.457557080E1,-9.240820334E0,-1.148703057E1,2.073142291E1
1.026647475E1,1.585259218E1,-9.590511312E0,-1.226922547E1,2.222198190E1
1.027648375E1,1.448439985E1,-8.710329355E0,-1.158773014E1,2.049251489E1
1.028649175E1,9.824256681E0,-6.168366956E0,-9.199458300E0,1.480522892E1
1.029649975E1,4.944120212E0,-3.049156902E0,-6.341674919E0,8.599914143E0
1.030650875E1,2.004136673E0,-6.138459617E-1,-4.046510628E0,4.557150309E0
1.031651675E1,-3.377141261E-1,1.012431357E0,-2.561358491E0,2.774819886E0
1.032652575E1,-2.382618172E0,2.277219771E0,-1.430869511E0,3.593047007E0
1.033653375E1,-4.026662255E0,3.188066865E0,-2.135951333E-1,5.140369844E0
1.034654275E1,-5.304330330E0,3.862306963E0,1.037900805E0,6.643084631E0
1.035655075E1,-6.542977012E0,4.454456246E0,2.170331207E0,8.207500605E0
1.036655975E1,-7.329440966E0,4.975682897E0,3.160018064E0,9.405521747E0
1.037656775E1,-7.832131943E0,5.503585314E0,3.982392401E0,1.036779588E1
1.038657675E1,-8.161794453E0,5.952214689E0,4.218590969E0,1.094715754E1
1.039658475E1,-8.399652754E0,6.346223468E0,4.261822358E0,1.135745784E1
1.040659375E1,-8.565100890E0,6.592783595E0,4.495223911E0,1.170610041E1
1.041660175E1,-8.636987729E0,6.722246797E0,4.863270468E0,1.197654202E1
1.042661075E1,-8.603417695E0,6.746529114E0,5.135667980E0,1.207930200E1
1.043661875E1,-8.464729341E0,6.699422776E0,5.279938086E0,1.201714003E1
1.044662775E1,-8.299629114E0,6.644862406E0,5.461842626E0,1.195281409E1
1.045663575E1,-8.222173972E0,6.438854474E0,5.845904122E0,1.196819062E1
1.046664475E1,-8.234056683E0,6.078033906E0,6.231117520E0,1.198202867E1
1.047665275E1,-8.141879421E0,5.644330133E0,6.531447473E0,1.186627445E1
1.048666075E1,-8.372972494E0,5.129203298E0,6.126376346E0,1.157358553E1
1.049666975E1,-8.704515468E0,4.702022679E0,5.062482474E0,1.111334043E1
1.050667775E1,-8.516324587E0,4.532635274E0,3.476446279E0,1.025466946E1
1.051668675E1,-7.490654549E0,4.611969711E0,1.965093937E0,9.013421347E0
1.052669475E1,-6.232795086E0,4.603012362E0,1.307928586E0,7.857870867E0
1.053670375E1,-5.169203516E0,4.198575658E0,1.212166981E0,6.768903259E0
1.054671175E1,-4.398558034E0,3.457152806E0,1.563313331E0,5.808886888E0
1.055672075E1,-3.709980564E0,2.432062227E0,2.058673069E0,4.890502762E0
1.056672875E1,-3.003985407E0,1.171834642E0,2.542934791E0,4.106536510E0
1.057673775E1,-2.259211516E0,-1.074490196E-1,3.019782537E0,3.772885969E0
1.058674575E1,-1.100548897E0,-1.279843825E0,3.120095030E0,3.547421752E0
1.059675475E1,1.163674852E0,-2.633547338E0,2.444770858E0,3.777117326E0
1.060676275E1,4.776340790E0,-4.186414618E0,4.884149998E-1,6.370090103E0
1.061677175E1,9.467529749E0,-5.871100359E0,-2.557307248E0,1.142995010E1
1.062677975E1,1.362213668E1,-6.561591039E0,-6.586767395E0,1.649250101E1
1.063678875E1,1.502545441E1,-5.600053847E0,-1.051057362E1,1.917282037E1
1.064679675E1,1.139696707E1,-3.328334552E0,-1.209000597E1,1.694511474E1
1.065680575E1,7.842009645E0,-1.660406347E0,-1.183007501E1,1.429002237E1
1.066681375E1,5.640293216E0,-1.571091297E0,-9.840796115E0,1.145087349E1
1.067682275E1,4.594321645E0,-2.051466376E0,-7.137447056E0,8.732666038E0
1.068683075E1,3.719646596E0,-2.737659937E0,-5.610880551E0,7.267223217E0
1.069683875E1,1.915289986E0,-3.130774092E0,-4.626923088E0,5.905802182E0
1.070684775E1,3.977486587E-1,-2.837991140E0,-3.425336059E0,4.466018901E0
1.071685575E1,-6.325418490E-1,-2.148104478E0,-1.921111473E0,2.950445955E0
1.072686475E1,-1.235392706E0,-1.260400078E0,-7.118701467E-1,1.903040357E0
1.073687275E1,-1.442335024E0,-4.231425315E-1,-4.405643106E-2,1.503768896E0
1.074688175E1,-1.653456346E0,1.528789616E-1,3.507218421E-1,1.697143387E0
1.075688975E1,-2.188419861E0,5.632301241E-1,4.181808767E-1,2.298104633E0
1.076689875E1,-2.714428364E0,7.715594012E-1,-9.851476640E-2,2.823673213E0
1.077690675E1,-3.178939362E0,9.531902915E-1,-1.196685308E0,3.527928985E0
1.078691575E1,-3.292309856E0,1.124112591E0,-2.316618017E0,4.179671320E0
1.079692375E1,-2.760416130E0,1.322882840E0,-2.561229852E0,3.991217180E0
1.080693275E1,-2.210273244E0,1.268299082E0,-7.732200104E-1,2.663035779E0
1.081694075E1,-2.139886217E0,8.781178898E-1,1.732280322E0,2.889809537E0
1.082694975E1,-2.631080398E0,5.254536027E-1,3.192547294E0,4.170257039E0
1.083695775E1,-3.374826933E0,3.418334895E-1,3.452539353E0,4.840075924E0
1.084696675E1,-4.087488500E0,1.424709177E-1,3.146439660E0,5.160227004E0
1.085697475E1,-4.735145987E0,-1.963050628E-1,2.829070336E0,5.519400525E0
1.086698375E1,-5.310057678E0,-9.153979826E-1,2.146852151E0,5.800313799E0
1.087699125E1,-5.736651821E0,-2.278290396E0,6.755488510E-1,6.209359669E0
1.088700025E1,-5.509012114E0,-3.419562811E0,3.296091543E-1,6.492400672E0
1.089700825E1,-4.619783930E0,-3.590470492E0,1.057308445E0,5.945736545E0
1.090701625E1,-3.645107460E0,-3.673580477E0,1.615591678E0,5.421451686E0
1.091702525E1,-2.787198717E0,-3.771091568E0,2.068475926E0,5.125251307E0
1.092703325E1,-1.952710412E0,-3.681298217E0,2.314501033E0,4.766754613E0
1.093704225E1,-9.703618097E-1,-3.654742502E0,2.490147006E0,4.527645846E0
1.094705025E1,-3.320218617E-1,-3.661712968E0,2.772781530E0,4.605073049E0
1.095705925E1,-1.539963645E-1,-3.494660355E0,3.631258914E0,5.042063782E0
1.096706725E1,4.625673831E-2,-3.317904289E0,5.149682586E0,6.126161873E0
1.097707625E1,2.129222649E-1,-2.964610841E0,6.395885625E0,7.052772948E0
1.098708425E1,6.771309614E-1,-2.285442125E0,6.295778954E0,6.731907953E0
1.099709325E1,1.104136164E0,-1.771018125E0,4.948960537E0,5.371017805E0
1.100710125E1,1.781282328E0,-1.452429072E0,3.778949057E0,4.423004964E0
1.101711025E1,2.573156126E0,-1.038704066E0,3.366927345E0,4.363053785E0
1.102711825E1,3.446389251E0,-7.170592582E-1,3.081977323E0,4.678713186E0
1.103712725E1,3.952701994E0,-3.649510413E-1,2.404204338E0,4.640823290E0
1.104713525E1,3.733912048E0,3.107836050E-1,1.446312300E0,4.016279983E0
1.105714425E1,2.897940888E0,1.015028690E0,4.191705179E-1,3.099039941E0
1.106715225E1,1.874486361E0,9.927893901E-1,-3.629063066E-1,2.151983010E0
1.107716125E1,1.370744639E0,2.573844928E-1,-1.026981568E0,1.732015815E0
1.108716925E1,1.164884056E0,-2.728351754E-1,-1.642205134E0,2.031805010E0
1.109717825E1,1.073964531E0,-2.974344116E-1,-2.196622481E0,2.463131618E0
1.110718625E1,4.819041252E-1,-2.383196461E-1,-2.570827180E0,2.626438697E0
1.111719425E1,-6.373587853E-1,-3.173359948E-1,-3.006480414E0,3.089636359E0
1.112720325E1,-1.628796299E0,-2.578364825E-1,-3.354531248E0,3.737958925E0
1.113721125E1,-2.245364140E0,7.564425945E-2,-2.396926016E0,3.285214833E0
1.114722025E1,-2.423692523E0,3.530759311E-1,-1.214194795E0,2.733718541E0
1.115722825E1,-2.148806729E0,5.478051692E-1,-5.674227239E-1,2.288979993E0
1.116723725E1,-1.774107209E0,7.031428850E-1,-1.669083323E-1,1.915652552E0
1.117724525E1,-1.541964562E0,8.054416770E-1,7.618118003E-2,1.741319780E0
1.118725425E1,-1.144359160E0,8.832447284E-1,2.458518831E-1,1.466329528E0
1.119726225E1,-6.836096764E-1,8.867565662E-1,3.247197126E-1,1.165805425E0
1.120727125E1,-2.163651055E-1,8.561311895E-1,3.590770747E-1,9.532632470E-1
1.121727925E1,2.578043228E-1,8.923266238E-1,6.624399783E-1,1.140849069E0
1.122728825E1,9.212902218E-1,9.218439531E-1,9.065045138E-1,1.587552324E0
1.123729625E1,1.597122517E0,8.403513086E-1,8.311387280E-1,1.986902675E0
1.124730525E1,1.908316596E0,8.579473346E-1,5.576387241E-1,2.165342192E0
1.125731325E1,1.775954345E0,9.757090884E-1,2.248030762E-1,2.038763960E0
1.126732225E1,1.597519543E0,1.185642841E0,-1.081739281E-1,1.992365236E0
1.127733025E1,1.436145746E0,1.493543184E0,-5.884561819E-1,2.153942090E0
1.128733925E1,1.555817785E0,1.757783538E0,-1.424333786E0,2.745741918E0
1.129734725E1,2.064422051E0,1.836434435E0,-2.407612095E0,3.664822757E0
1.130735525E1,2.881526585E0,1.803318729E0,-3.433807213E0,4.831789096E0
1.131736425E1,3.686664791E0,1.655260797E0,-4.378145697E0,5.958149489E0
1.132737225E1,4.471666941E0,1.590507562E0,-5.528271673E0,7.286103707E0
1.133738125E1,5.240645966E0,1.611812477E0,-5.739820427E0,7.937748304E0
1.134738925E1,5.865860084E0,1.650604075E0,-4.761842327E0,7.733560027E0
1.135739825E1,6.077416440E0,1.548120511E0,-3.832541712E0,7.349832901E0
1.136740625E1,5.939725621E0,1.592836508E0,-3.173050631E0,6.919950787E0
1.137741525E1,5.472061805E0,1.845294721E0,-2.777985844E0,6.408258605E0
1.138742325E1,4.869005710E0,2.019707808E0,-2.729045234E0,5.935833903E0
1.139743225E1,4.236593669E0,1.721861753E0,-3.376030875E0,5.684286963E0
1.140744025E1,3.474428989E0,1.434092204E0,-4.682118757E0,6.004207967E0
1.141744925E1,2.523328493E0,1.062392306E0,-6.443487223E0,7.001027902E0
1.142745725E1,1.955129989E0,7.870112532E-1,-7.996918759E0,8.269983654E0
1.143746625E1,2.091754861E0,8.321833330E-1,-8.346524368E0,8.644792451E0
1.144747425E1,1.986562867E0,1.108485907E0,-7.785120329E0,8.110688724E0
1.145748325E1,1.507672981E0,1.401794524E0,-6.435534425E0,6.756789847E0
1.146749125E1,8.792616051E-1,1.611380952E0,-4.989037938E0,5.316027566E0
1.147750025E1,5.645018935E-2,1.852216655E0,-4.160900878E0,4.554886308E0
1.148750825E1,-5.544370812E-1,2.025835690E0,-3.347131596E0,3.951544084E0
1.149751725E1,-7.054232991E-1,2.132573689E0,-1.461445479E0,2.679797652E0
1.150752525E1,-7.613969404E-1,1.994647227E0,8.645201898E-1,2.303418768E0
1.151753325E1,-8.935785127E-1,1.634938214E0,2.827769623E0,3.386412049E0
1.152754225E1,-9.557414317E-1,1.242332767E0,4.175245267E0,4.459765176E0
1.153755025E1,-8.696213007E-1,9.343026155E-1,4.785065421E0,4.952374548E0
1.154755925E1,-4.926782048E-1,4.810703123E-1,5.011704669E0,5.058788802E0
1.155756725E1,2.142215163E-1,-4.590122759E-1,5.126221218E0,5.151186961E0
1.156757625E1,1.276167680E0,-1.608963128E0,5.413783776E0,5.790200434E0
1.157758425E1,2.523323815E0,-2.889583463E0,6.220867935E0,7.308628704E0
1.158759325E1,3.815094790E0,-4.344982629E0,8.303522190E0,1.011841406E1
1.159760125E1,5.031807981E0,-6.002008992E0,1.148159149E1,1.389856635E1
1.160761025E1,6.118142881E0,-7.605042459E0,1.264279355E1,1.597211858E1
1.161761825E1,6.668450074E0,-8.464586669E0,1.058210495E1,1.510292683E1
1.162762725E1,6.507848110E0,-7.030672220E0,-3.224409065E0,1.010837537E1
1.163763525E1,7.193250543E0,-4.946066165E0,-1.514343485E1,1.747941769E1
1.164764425E1,5.928045807E0,-3.862826196E0,-8.833792144E0,1.131808451E1
1.165765225E1,4.537707734E0,-2.751866916E0,-1.048982887E0,5.409614413E0
1.166766125E1,3.385575285E0,-1.426561867E0,5.663452283E0,6.750695559E0
1.167766925E1,1.954166953E0,-8.004747596E-1,8.049227366E0,8.321633824E0
1.168767825E1,1.818735498E-1,-8.077501577E-1,6.752845861E0,6.803415725E0
1.169768625E1,-1.234957674E0,-1.695590798E0,5.488229356E0,5.875441266E0
1.170769525E1,-1.535576479E0,-2.544564410E0,5.398613175E0,6.162615303E0
1.171770325E1,-1.688985198E0,-2.963235869E0,5.752119461E0,6.687325033E0
1.172771125E1,-2.279369207E0,-3.164306704E0,5.694103972E0,6.901534680E0
1.173772025E1,-3.356469600E0,-3.087912540E0,5.285985276E0,6.981599556E0
1.174772825E1,-4.628955288E0,-3.059257675E0,4.758124375E0,7.309311332E0
1.175773725E1,-5.750493350E0,-2.907987574E0,4.063181625E0,7.618005672E0
1.176774525E1,-6.591579654E0,-2.767540963E0,3.312582738E0,7.879175700E0
1.177775425E1,-7.080472371E0,-2.504389069E0,2.727016835E0,7.990098524E0
1.178776225E1,-7.246971837E0,-2.076199513E0,2.171169405E0,7.844946259E0
1.179777125E1,-7.152588421E0,-1.420512923E0,1.526206900E0,7.450280906E0
1.180777925E1,-6.737123868E0,-7.371423975E-1,6.133144498E-1,6.805025462E0
1.181778825E1,-5.907682879E0,-1.006767744E-1,-4.972232455E-1,5.929425248E0
1.182779625E1,-4.941636314E0,3.593698740E-1,-1.469554982E0,5.168027478E0
1.183780525E1,-3.668943635E0,6.144765839E-1,-2.142301117E0,4.292805952E0
1.184781325E1,-1.780252048E0,7.714409950E-1,-2.484441000E0,3.152279437E0
1.185782225E1,6.428639388E-1,1.015984125E0,-2.324682789E0,2.617183192E0
1.186783025E1,2.698940844E0,1.305582391E0,-2.208551239E0,3.723778408E0
1.187783937E1,4.205208739E0,1.866911877E0,-2.060206209E0,5.041189356E0
1.188784737E1,5.164819273E0,2.609687190E0,-1.599803465E0,6.003765192E0
1.189785637E1,5.213147095E0,3.215171633E0,-1.263136575E0,6.253778480E0
1.190786437E1,4.394358564E0,3.630988188E0,-9.230180740E-1,5.774636333E0
1.191787338E1,3.586648752E0,3.665453432E0,-6.845849919E-1,5.173804668E0
1.192788137E1,2.947245196E0,3.015793859E0,-8.971599323E-1,4.311167218E0
1.193788937E1,2.320867481E0,2.502864115E0,-1.218193706E0,3.624189640E0
1.194789838E1,2.181635336E0,2.066177970E0,-1.976429642E0,3.596511959E0
1.195790637E1,2.541015735E0,1.449025993E0,-2.304160232E0,3.723653001E0
1.196791538E1,2.626745272E0,8.185014331E-1,-1.688817383E0,3.228287390E0
1.197792338E1,2.157299225E0,3.449579492E-1,-1.801918906E0,2.831933558E0
1.198793237E1,1.831195915E0,-2.107710743E-1,-2.531904604E0,3.131811592E0
1.199794038E1,1.678654338E0,-1.473683701E0,-3.896678651E0,4.491517399E0
1.200794937E1,9.309088916E-1,-3.439445683E0,-4.591272322E0,5.811726035E0
1.201795737E1,-4.990773976E-2,-4.802270268E0,-2.051639453E0,5.222405093E0
1.202796637E1,-1.664559039E0,-4.709536644E0,2.701927602E0,5.678988023E0
1.203797437E1,-3.802021585E0,-3.594043726E0,6.219765735E0,8.127607535E0
1.204798337E1,-5.866861128E0,-2.092405656E0,6.261917143E0,8.832317206E0
1.205799137E1,-9.855657399E0,-4.524635113E0,9.933906008E0,1.470676015E1
1.206800038E1,-1.725746058E1,-9.888072023E0,-2.037085149E-1,1.989058600E1
1.207800837E1,-6.139568249E0,5.024963815E0,-2.364961568E1,2.494491695E1
1.208801738E1,-7.310522300E0,1.643838554E0,-1.928705252E0,7.737302207E0
1.209802538E1,-6.865849151E0,-3.384135408E0,1.050830490E1,1.300064340E1
1.210803437E1,-7.139327520E-1,-2.741582541E0,1.644672191E1,1.668893755E1
1.211804238E1,3.832987270E0,1.288574010E0,9.678232995E0,1.048906136E1
1.212805137E1,7.266147780E0,3.803301541E0,-2.742890271E0,8.647858302E0
1.213805937E1,1.009067571E1,3.501998319E0,-5.577042714E0,1.204944538E1
1.214806737E1,9.908965294E0,3.372183699E0,-2.141267621E0,1.068383092E1
1.215807637E1,6.081225901E0,3.006883287E0,2.127382823E0,7.109740729E0
1.216808437E1,1.612113608E0,2.142405782E0,3.072053721E0,4.077539317E0
1.217809337E1,-1.070100106E0,1.429319707E0,2.356203083E0,2.956308852E0
1.218810137E1,-2.614839756E0,8.659220597E-1,2.850389284E0,3.963827322E0
1.219811038E1,-3.134789960E0,1.634825948E-1,3.683034840E0,4.839254104E0
1.220811837E1,-3.624452755E0,-8.991599724E-1,3.831409106E0,5.350218890E0
1.221812738E1,-3.719706822E0,-2.274489121E0,2.363089056E0,4.959204522E0
1.222813538E1,-2.963873507E0,-3.612346680E0,1.165226703E0,4.815739608E0
1.223814437E1,-1.762037387E0,-4.545814898E0,1.273746348E0,5.039011669E0
1.224815238E1,-5.353014833E-1,-4.578047967E0,8.845869568E-1,4.693353273E0
1.225816137E1,9.534487385E-1,-3.343619174E0,6.329195791E-1,3.534040304E0
1.226816937E1,2.369833819E0,-1.902700930E0,1.698328172E0,3.481479820E0
1.227817837E1,3.278742562E0,-1.013901932E0,2.167028699E0,4.058837678E0
1.228818637E1,2.938002502E0,-7.691611657E-1,1.388920124E0,3.339545884E0
1.229819537E1,2.048172054E0,-8.284235734E-1,1.176704788E0,2.503183680E0
1.230820337E1,1.333261648E0,-7.989211544E-1,1.436479622E0,2.116444031E0
1.231821238E1,5.927667493E-1,-6.067418870E-1,9.112727720E-1,1.244960321E0
1.232822037E1,-1.312407553E-1,-2.921131530E-1,-3.892777973E-1,5.040748293E-1
1.233822837E1,-2.603309047E-1,1.427290723E-1,-4.803110513E-1,5.646613800E-1
1.234823738E1,-5.212091088E-2,7.315840343E-1,2.796489358E-1,7.849428742E-1
1.235824537E1,-6.816415036E-1,1.344093907E0,3.963061506E-1,1.558294624E0
1.236825438E1,-1.039102846E0,1.894552251E0,2.683717033E-1,2.177403575E0
1.237826238E1,-9.118183172E-1,2.546676425E0,3.107137308E-1,2.722777346E0
1.238827137E1,-1.392972245E0,3.016660124E0,-2.426536024E-1,3.331589823E0
1.239827938E1,-1.826277822E0,3.351731016E0,-7.395189983E-1,3.887966028E0
1.240828837E1,-2.280163259E0,3.355259811E0,-5.795268989E-1,4.097897548E0
1.241829637E1,-2.520722389E0,3.159759325E0,-7.977777314E-1,4.120020590E0
1.242830537E1,-2.135241773E0,2.898680854E0,-1.232473776E0,3.805338320E0
1.243831337E1,-1.263824208E0,2.522110518E0,-1.565068665E0,3.226101830E0
1.244832237E1,-8.031267643E-1,2.124964999E0,-2.165402296E0,3.138384290E0
1.245833037E1,4.626176691E-1,1.566139290E0,-1.133504974E0,1.987873464E0
1.246833938E1,1.459107177E0,1.171832010E0,1.506997043E-1,1.877470217E0
1.247834737E1,2.429957814E0,8.667965108E-1,1.114970469E0,2.810549825E0
1.248835638E1,3.120175429E0,5.490260679E-1,9.369502348E-1,3.303755450E0
1.249836438E1,3.043630698E0,7.381817400E-2,1.307992905E-1,3.047334147E0
1.250837337E1,2.085228783E0,-2.381991935E-1,-1.755071014E-1,2.106115068E0
1.251838138E1,1.219064357E0,-4.353912789E-1,7.643743426E-1,1.503313542E0
1.252839037E1,1.086471140E0,-6.879135194E-1,7.830947882E-1,1.505616816E0
1.253839837E1,1.158808799E0,-9.724413720E-1,-7.699081475E-1,1.697421165E0
1.254840638E1,1.525187731E0,-1.443446287E0,-7.617939663E-1,2.233845305E0
1.255841537E1,1.765258033E0,-2.259347171E0,8.426071644E-1,2.988439793E0
1.256842337E1,1.480065352E0,-3.400060008E0,9.222079423E-1,3.821186856E0
1.257843237E1,1.087744079E0,-4.435596637E0,3.693767989E-1,4.581936701E0
1.258844037E1,8.590705848E-1,-4.781191640E0,4.530188799E-1,4.878834070E0
1.259844938E1,4.974840313E-1,-4.715434730E0,1.007170032E0,4.847391725E0
1.260845737E1,-7.509871423E-2,-4.506372797E0,1.668784822E0,4.806025217E0
1.261846638E1,-5.493985355E-1,-4.327150960E0,1.455062658E0,4.598182415E0
1.262847438E1,-4.612833345E-1,-4.415700609E0,7.477548015E-1,4.502258480E0
1.263848337E1,-9.774147213E-2,-4.752331246E0,6.022801691E-1,4.791340842E0
1.264849138E1,6.082466680E-1,-5.035847822E0,6.237815505E-1,5.110658541E0
1.265850037E1,2.182220058E0,-5.479108869E0,-1.806564519E-1,5.900453807E0
1.266850837E1,4.743546681E0,-6.240804602E0,-9.626645350E-1,7.897822498E0
1.267851737E1,7.910870549E0,-7.547705832E0,-1.176360387E0,1.099697958E1
1.268852537E1,1.152659283E1,-9.046167110E0,-3.318294883E-1,1.465624755E1
1.269853437E1,1.510762416E1,-1.006296458E1,1.328711929E0,1.820079777E1
1.270854237E1,1.830968809E1,-1.095843408E1,3.233426056E0,2.158209905E1
1.271855138E1,2.024371080E1,-1.194541134E1,4.620846954E0,2.395522710E1
1.272855937E1,2.063539473E1,-1.236466840E1,5.497182612E0,2.467637649E1
1.273856838E1,2.104867125E1,-1.277076220E1,5.899515488E0,2.531685628E1
1.274857638E1,2.049554804E1,-1.262929116E1,4.927227606E0,2.457323862E1
1.275858537E1,1.826623860E1,-1.147912045E1,2.429727434E0,2.171011871E1
1.276859338E1,1.548497773E1,-8.404119442E0,-2.026549051E0,1.773473033E1
1.277860138E1,1.280415097E1,-4.261267750E0,-7.945571435E0,1.566003801E1
1.278861037E1,9.611047318E0,-9.106629074E-1,-1.036899031E1,1.416748028E1
1.279861838E1,6.684217676E0,1.250879057E0,-9.005007974E0,1.128422053E1
1.280862737E1,3.843808712E0,2.959859394E0,-7.403705868E0,8.851581419E0
1.281863537E1,6.497262311E-1,4.172112914E0,-7.804830124E0,8.873784063E0
1.282864437E1,-3.382542919E0,4.957363570E0,-1.173471394E1,1.318030961E1
1.283865237E1,-8.187573658E0,5.109854277E0,-1.898019415E1,2.129306796E1
1.284866137E1,-1.209756642E1,3.937806212E0,-2.143609607E1,2.492716682E1
1.285866937E1,-1.333865899E1,2.078053080E0,-1.502453639E1,2.019838662E1
1.286867838E1,-1.339613244E1,1.079697141E0,-8.068523178E0,1.567555985E1
1.287868667E1,-1.171055442E1,9.909358227E-1,-5.544139847E0,1.299448057E1
1.288869567E1,-1.009242636E1,1.485345388E0,-4.059582079E0,1.097923164E1
1.289870367E1,-9.692461025E0,2.116229551E0,-2.412722561E0,1.020996858E1
1.290871267E1,-8.630813654E0,3.028282927E0,-9.055354840E-1,9.191378369E0
1.291872067E1,-7.841237227E0,4.001974726E0,9.260276359E-1,8.852024070E0
1.292872967E1,-7.791333581E0,4.659454365E0,2.409491390E0,9.392605746E0
1.293873767E1,-7.684515476E0,5.058926198E0,3.327869114E0,9.783620251E0
1.294874667E1,-7.492730895E0,5.255620100E0,4.340368298E0,1.012923274E1
1.295875467E1,-7.571803377E0,5.218718323E0,5.197344410E0,1.056312531E1
1.296876267E1,-8.086989854E0,5.292699634E0,6.045523971E0,1.140001905E1
1.297877167E1,-8.481389812E0,5.510180973E0,7.055907633E0,1.233214904E1
1.298877967E1,-8.885805466E0,5.731626139E0,8.402074671E0,1.350570012E1
1.299878867E1,-9.117327724E0,6.093231404E0,1.017209702E1,1.495742931E1
1.300879667E1,-9.135847610E0,6.250252533E0,1.155809996E1,1.600371966E1
1.301880567E1,-9.510112097E0,5.726839024E0,1.088311961E1,1.554609950E1
1.302881367E1,-9.797934271E0,5.124249537E0,8.258622590E0,1.380080782E1
1.303882267E1,-9.650878551E0,4.603817815E0,5.275812875E0,1.192345574E1
1.304883067E1,-9.420691797E0,4.270119265E0,3.383619391E0,1.088265743E1
1.305883967E1,-9.531782463E0,3.834985556E0,2.277805369E0,1.052380104E1
1.306884767E1,-9.753527007E0,3.539820448E0,1.631901755E0,1.050355755E1
1.307885667E1,-9.797861765E0,3.557346893E0,1.224985686E0,1.049539909E1
1.308886467E1,-9.650809554E0,3.673896811E0,9.162279949E-1,1.036702062E1
1.309887367E1,-9.491145483E0,3.854141619E0,6.107371433E-1,1.026202953E1
1.310888167E1,-9.354363322E0,4.061013185E0,2.824217585E-1,1.020175001E1
1.311889067E1,-9.347748951E0,4.158201511E0,-1.465616298E-1,1.023193679E1
1.312889867E1,-9.507245207E0,4.263088865E0,-7.968304825E-1,1.044971659E1
1.313890767E1,-9.967250340E0,4.422572841E0,-2.626012616E0,1.121611217E1
1.314891567E1,-1.083860242E1,4.696067875E0,-6.548268743E0,1.350585722E1
1.315892367E1,-1.085553595E1,4.905475379E0,-6.947344719E0,1.379028456E1
1.316893267E1,-9.929107783E0,4.462897579E0,-6.215106089E0,1.253523753E1
1.317894067E1,-8.401051993E0,3.443641060E0,-6.284775664E0,1.104240660E1
1.318894967E1,-7.106336360E0,2.495403068E0,-6.349056444E0,9.850764979E0
1.319895767E1,-6.168200310E0,1.670120911E0,-5.613026479E0,8.505413875E0
1.320896667E1,-4.870621296E0,1.164613038E0,-5.209655138E0,7.226325622E0
1.321897467E1,-3.054134637E0,5.673562118E-1,-6.500583529E0,7.204666382E0
1.322898367E1,-3.682927251E-2,-6.127864462E-1,-1.033182073E1,1.035004267E1
1.323899167E1,2.885990934E0,-2.570600308E0,-1.147121151E1,1.210477687E1
1.324900067E1,3.167997467E0,-2.902248825E0,1.876219768E0,4.688225337E0
1.325900867E1,3.522804759E0,-8.875520799E-1,1.278667716E1,1.329274294E1
1.326901767E1,4.266695135E0,1.362243372E-1,1.238488105E1,1.309994363E1
1.327902567E1,4.631546189E0,-2.095789147E0,9.138920907E0,1.045769705E1
1.328903467E1,7.596028392E0,-9.561137824E0,-1.395696112E1,1.854485825E1
1.329904267E1,2.142838943E1,-9.294516485E0,-2.292363474E1,3.272700628E1
1.330905167E1,2.546517614E1,-1.356813414E1,-4.336072349E0,2.917826217E1
1.331905967E1,2.653550897E1,-2.524790530E1,-1.969743351E0,3.668064677E1
1.332906867E1,2.764607298E1,-2.555056420E1,-6.598420896E0,3.821878910E1
1.333907667E1,2.412998082E1,-2.180081965E1,-9.562913623E0,3.389662268E1
1.334908567E1,1.754113942E1,-1.633172355E1,1.387292844E-1,2.396739477E1
1.335909367E1,1.134804927E1,-9.530686110E0,5.489736183E0,1.580346175E1
1.336910267E1,5.543538169E0,-4.220681933E0,5.405949676E0,8.818688299E0
1.337911067E1,4.624597943E-1,-3.570879981E-1,8.050323134E0,8.071498217E0
1.338911867E1,-6.277533302E0,2.413264014E0,4.495224788E0,8.089395123E0
1.339912767E1,-7.674360031E0,3.950924440E0,2.956484381E0,9.123946828E0
1.340913567E1,-8.200043430E0,1.915201985E0,6.128805279E0,1.041493951E1
1.341914467E1,-1.215342604E1,1.626966559E0,4.837922496E0,1.318174035E1
1.342915267E1,-1.366791570E1,3.008198326E0,4.464771904E0,1.468997498E1
1.343916167E1,-1.204454621E1,3.926652648E0,6.952359876E0,1.445077860E1
1.344916967E1,-7.385837361E0,3.026450994E0,5.164928032E0,9.507180482E0
1.345917867E1,-9.540971947E-1,1.111280145E0,1.389573258E-1,1.471242386E0
1.346918667E1,3.713604083E0,-8.577907754E-1,-2.568856668E0,4.596268582E0
1.347919567E1,6.090865036E0,-3.182231636E0,-3.536004263E0,7.728425533E0
1.348920367E1,6.683171024E0,-4.767149260E0,-4.527361670E0,9.374832836E0
1.349921267E1,6.406557378E0,-5.255228337E0,-5.245223751E0,9.806822855E0
1.350922067E1,6.107192216E0,-5.063170692E0,-5.698294086E0,9.767499665E0
1.351922967E1,5.890183917E0,-3.912066768E0,-5.871026099E0,9.190619154E0
1.352923767E1,5.440811360E0,-1.630982281E0,-4.442568272E0,7.211029352E0
1.353924667E1,4.110984952E0,5.925607811E-1,-2.953026338E0,5.096242744E0
1.354925467E1,2.498341001E0,2.658161485E0,-1.902336649E0,4.114172452E0
1.355926367E1,3.290409511E-1,3.941884060E0,8.646745563E-2,3.956538198E0
1.356927167E1,-2.217077649E0,4.378461446E0,1.128588635E0,5.035878299E0
1.357928067E1,-3.846996029E0,4.435658910E0,3.940637434E-1,5.884703446E0
1.358928867E1,-3.613766384E0,3.648622806E0,-6.356858969E-2,5.135737223E0
1.359929667E1,-1.794231572E0,2.059363040E0,-2.709067637E-1,2.744746535E0
1.360930567E1,1.401712078E-1,9.645699964E-1,-1.364317380E0,1.676724532E0
1.361931367E1,1.144666139E0,4.736237369E-1,-1.887457824E0,2.257670713E0
1.362932267E1,9.497059357E-1,-7.327058226E-2,-1.115124251E0,1.466564706E0
1.363933067E1,4.890266186E-1,-4.150570017E-1,-9.380272919E-1,1.136360220E0
1.364933967E1,6.203106433E-1,-5.290211351E-1,-7.272913009E-1,1.092520614E0
1.365934767E1,7.592299622E-1,-1.135243205E0,-7.053759366E-1,1.537127998E0
1.366935667E1,6.184956676E-1,-1.990042106E0,-1.048248476E0,2.332730019E0
1.367936467E1,6.246130246E-1,-3.014190260E0,-1.243862398E0,3.320041870E0
1.368937367E1,3.218687564E-1,-3.648934463E0,-6.900199789E-1,3.727525960E0
1.369938167E1,1.529836267E-1,-3.573451879E0,-9.840144736E-1,3.709615452E0
1.370939067E1,6.305333304E-1,-3.194642936E0,-2.452425156E0,4.076481929E0
1.371939867E1,1.533151054E0,-2.918578636E0,-2.746048352E0,4.290621745E0
1.372940767E1,1.912614884E0,-2.740322466E0,-1.804450166E0,3.797828763E0
1.373941567E1,1.814942409E0,-2.673106968E0,-5.979403657E-1,3.285886409E0
1.374942467E1,1.563050206E0,-2.755388110E0,2.533966917E-1,3.177970967E0
1.375943267E1,1.219657264E0,-2.956399889E0,1.129393796E0,3.391665445E0
1.376944167E1,8.735687560E-1,-3.190023636E0,1.609246718E0,3.678185445E0
1.377944967E1,5.482945812E-1,-3.553709925E0,1.720244413E0,3.986065982E0
1.378945867E1,4.221648771E-1,-4.103462217E0,1.186617572E0,4.292398701E0
1.379946667E1,5.381841606E-1,-4.836436426E0,1.544840223E-1,4.868739550E0
1.380947567E1,8.482175678E-1,-5.376148757E0,-2.569681710E-1,5.448713714E0
1.381948367E1,1.070488361E0,-5.594122431E0,-3.033459467E-1,5.703697912E0
1.382949167E1,1.406061822E0,-5.650866151E0,-6.236400479E-1,5.856468647E0
1.383950067E1,1.704945173E0,-5.253616844E0,-1.136220128E0,5.639000281E0
1.384950867E1,1.908157552E0,-4.531051848E0,-1.515631626E0,5.144767761E0
1.385951767E1,2.161130905E0,-3.778757853E0,-1.743278350E0,4.689191519E0
1.386952567E1,2.234393594E0,-3.031518191E0,-1.948086726E0,4.240006977E0
1.387953454E1,1.836909814E0,-2.194481084E0,-2.035412553E0,3.511821344E0
1.388954254E1,6.656680799E-1,-1.164486446E0,-1.736294435E0,2.194051285E0
1.389955154E1,-8.576883030E-1,6.076777339E-2,-9.720744592E-1,1.297786848E0
1.390955954E1,-2.158872126E0,1.230634242E0,-8.724835128E-2,2.486524033E0
1.391956854E1,-3.207836886E0,2.302944011E0,5.069424874E-1,3.981301206E0
1.392957654E1,-4.289476472E0,3.190906273E0,7.553374708E-1,5.399261611E0
1.393958554E1,-5.306914215E0,3.920755731E0,7.643521231E-1,6.642281096E0
1.394959354E1,-6.257297843E0,4.541663375E0,4.565681398E-1,7.745252544E0
1.395960254E1,-7.167396494E0,4.946651471E0,-1.380276185E-1,8.709763769E0
1.396961054E1,-7.984857708E0,5.211902808E0,-1.054602061E0,9.593438851E0
1.397961954E1,-8.089334003E0,5.353066288E0,-2.013854746E0,9.906980076E0
1.398962754E1,-6.371030281E0,5.212383449E0,-2.603514577E0,8.633496175E0
1.399963654E1,-4.003361101E0,4.840682967E0,-2.071983963E0,6.614546789E0
1.400964454E1,-2.501053525E0,4.755560955E0,-2.258253157E-2,5.373187016E0
1.401965254E1,-1.456030372E0,5.044985851E0,3.337428434E0,6.221763033E0
1.402966154E1,-6.360273743E-1,5.765406674E0,6.549757444E0,8.748929506E0
1.403966954E1,1.865144849E-2,6.614856834E0,8.118346717E0,1.047206915E1
1.404967854E1,1.367630412E0,7.317852370E0,7.998210994E0,1.092669920E1
1.405968654E1,3.615504761E0,7.118930678E0,6.540516504E0,1.032130829E1
1.406969554E1,5.277971667E0,5.405169657E0,3.398368408E0,8.283824707E0
1.407970354E1,3.888958572E0,2.532995110E0,-1.508703260E0,4.880189395E0
1.408971254E1,1.746195526E0,-1.684115052E-1,-4.676122438E0,4.994365055E0
1.409972054E1,9.399422550E-1,-2.230999285E0,-4.469529199E0,5.083064087E0
1.410972954E1,6.481053829E-1,-3.513593640E0,-3.649420366E0,5.107215471E0
1.411973754E1,7.015910339E-1,-4.117770646E0,-2.556530737E0,4.897357908E0
1.412974654E1,8.214566159E-1,-3.806309933E0,-1.092097331E0,4.044188776E0
1.413975454E1,5.125037742E-1,-3.091420577E0,4.848306566E-2,3.133989775E0
1.414976354E1,-3.551832676E-2,-2.550185924E0,8.594813517E-1,2.691359878E0
1.415977154E1,-7.571892840E-1,-2.420353763E0,6.666550899E-1,2.622189344E0
1.416978054E1,-1.540178822E0,-2.008926712E0,-3.074544927E-1,2.549993256E0
1.417978854E1,-2.064468244E0,-1.724604682E0,-1.099354895E0,2.906006130E0
1.418979754E1,-2.155697672E0,-1.659937400E0,-1.537432677E0,3.125079817E0
1.419980554E1,-1.610265303E0,-1.455033422E0,-1.776571226E0,2.804689275E0
1.420981454E1,-6.627280998E-1,-1.236062213E0,-1.934178246E0,2.389163832E0
1.421982254E1,-2.998159826E-1,-9.247658068E-1,-2.264200653E0,2.464079142E0
1.422983154E1,-4.776438439E-1,-6.177834767E-1,-2.730813724E0,2.840271758E0
1.423983954E1,-6.637531167E-1,-4.513635331E-1,-3.006081634E0,3.111402261E0
1.424984754E1,-6.810474265E-1,-5.775429386E-1,-3.034157917E0,3.162830332E0
1.425985654E1,-5.954459435E-1,-8.479497653E-1,-2.966177018E0,3.141939016E0
1.426986454E1,-3.200303918E-1,-1.093722273E0,-2.752234999E0,2.978832884E0
1.427987354E1,-2.395095545E-1,-1.215367162E0,-2.492290887E0,2.783162955E0
1.428988154E1,-7.385676563E-1,-1.119321967E0,-2.181345607E0,2.560592218E0
1.429989054E1,-1.502580056E0,-8.179132032E-1,-1.930612322E0,2.579533440E0
1.430989854E1,-2.291546034E0,-4.316151470E-1,-1.763355349E0,2.923507644E0
1.431990754E1,-3.090722419E0,-1.347841680E-1,-1.544024828E0,3.457563378E0
1.432991554E1,-3.668522635E0,5.072050273E-2,-1.128750895E0,3.838581701E0
1.433992454E1,-3.995293112E0,2.051688570E-1,-7.515011126E-1,4.070530093E0
1.434993254E1,-4.124428285E0,3.130119789E-1,-5.487411623E-1,4.172529454E0
1.435994154E1,-4.156684451E0,3.750427508E-1,-5.020071450E-1,4.203652443E0
1.436994954E1,-3.882482781E0,4.252972305E-1,-3.248271552E-1,3.919191621E0
1.437995854E1,-3.441632541E0,5.180323166E-1,-2.620575875E-3,3.480402117E0
1.438996654E1,-2.931802699E0,7.189379686E-1,6.020991978E-1,3.078126429E0
1.439997554E1,-2.247069772E0,9.362164092E-1,1.305256408E0,2.762158218E0
1.440998354E1,-1.861655815E0,1.016917341E0,1.690407826E0,2.712445736E0
1.441999254E1,-1.659479563E0,5.562292528E-1,1.665296373E0,2.415879843E0
1.443000054E1,-1.343856218E0,-2.647326887E-1,1.035129079E0,1.716835793E0
1.444000854E1,-1.063104497E0,-1.091350057E0,-5.865692854E-2,1.524689068E0
1.445001754E1,-7.191157240E-1,-1.584512996E0,-1.088201916E0,2.052313882E0
1.446002554E1,-8.608972549E-2,-1.874078810E0,-1.550114411E0,2.433605866E0
1.447003454E1,5.563520443E-1,-1.802731084E0,-9.359100151E-1,2.106013893E0
1.448004254E1,8.473001397E-1,-1.715385377E0,-1.231248200E-1,1.917191759E0
1.449005154E1,1.055631756E0,-1.579477959E0,3.773371983E-1,1.936876967E0
1.450005954E1,1.148110149E0,-1.459808843E0,7.099736754E-1,1.988281014E0
1.451006854E1,1.494373489E0,-1.266699868E0,7.100975633E-1,2.083727245E0
1.452007654E1,2.009979211E0,-1.008429523E0,5.477156703E-1,2.314506208E0
1.453008554E1,2.360063707E0,-6.655622452E-1,2.217123842E-1,2.462119043E0
1.454009354E1,2.847242605E0,-2.725404757E-1,-1.805117333E-1,2.865947182E0
1.455010254E1,3.276384965E0,1.687184840E-1,-4.315888345E-1,3.308992790E0
1.456011054E1,3.396604303E0,5.759326154E-1,-2.723925412E-1,3.455838084E0
1.457011954E1,2.903858271E0,1.007016835E0,5.059227329E-1,3.114872963E0
1.458012754E1,2.656329845E0,1.431816468E0,7.559368104E-1,3.110888475E0
1.459013654E1,2.218573367E0,1.810035426E0,1.390469636E0,3.183033433E0
1.460014454E1,1.041147618E0,1.861757557E0,2.777223367E0,3.501870813E0
1.461015354E1,5.485968822E-1,2.011726359E0,3.483377568E0,4.059793192E0
1.462016154E1,9.132812905E-1,2.298535795E0,3.451168181E0,4.245928795E0
1.463017054E1,1.765156292E0,2.448638499E0,2.807124858E0,4.122081659E0
1.464017854E1,2.504140270E0,2.579783360E0,1.930638342E0,4.080853475E0
1.465018654E1,2.540343305E0,2.643007548E0,1.100333792E0,3.827475338E0
1.466019554E1,2.164471419E0,2.580152904E0,2.967497758E-1,3.380855803E0
1.467020354E1,1.797648100E0,2.240931950E0,-5.531395841E-1,2.925624394E0
1.468021254E1,1.441668441E0,1.848445493E0,-1.364349978E0,2.712307044E0
1.469022054E1,8.602300876E-1,1.589284909E0,-1.842796791E0,2.581031254E0
1.470022954E1,6.924448192E-2,1.450367344E0,-2.274255963E0,2.698258775E0
1.471023754E1,-6.707200742E-1,1.337723366E0,-2.747297902E0,3.128420525E0
1.472024654E1,-1.171175660E0,1.201867695E0,-3.079453080E0,3.507017203E0
1.473025454E1,-1.279266704E0,1.033554131E0,-3.142020627E0,3.546413831E0
1.474026354E1,-1.099512185E0,8.834447032E-1,-2.843958224E0,3.174507831E0
1.475027154E1,-8.649482059E-1,9.189373022E-1,-2.299189660E0,2.622756996E0
1.476028054E1,-8.620000398E-1,9.562627110E-1,-1.879551219E0,2.278199997E0
1.477028854E1,-9.300177759E-1,9.456915298E-1,-1.467895250E0,1.978378629E0
1.478029754E1,-8.192949003E-1,9.848260671E-1,-1.127264825E0,1.706415102E0
1.479030554E1,-5.883830917E-1,1.004646082E0,-8.869629729E-1,1.463629641E0
1.480031454E1,-2.730456752E-1,9.494533360E-1,-7.035030735E-1,1.212819918E0
1.481032254E1,2.225233930E-1,8.236288565E-1,-5.088045332E-1,9.933595556E-1
1.482033154E1,7.885280210E-1,7.809634781E-1,-5.631967950E-1,1.244536469E0
1.483033954E1,1.196218116E0,8.767932031E-1,-7.607294807E-1,1.666857356E0
1.484034854E1,1.484477661E0,1.121498009E0,-1.025001701E0,2.124161057E0
1.485035654E1,1.767054298E0,1.373754786E0,-1.203843177E0,2.541440831E0
1.486036454E1,1.893593892E0,1.636719861E0,-1.348832783E0,2.843219937E0
1.487037354E1,1.636178994E0,1.934398686E0,-1.454141137E0,2.921216600E0
1.488038192E1,1.188102765E0,2.188265202E0,-1.556668848E0,2.936547407E0
1.489039092E1,6.445666480E-1,2.386027975E0,-1.617579293E0,2.953837916E0
1.490039892E1,1.940562236E-1,2.518073308E0,-1.737375585E0,3.065424102E0
1.491040792E1,-1.702294046E-1,2.444117724E0,-1.911636645E0,3.107578505E0
1.492041592E1,-4.681643379E-1,2.206812570E0,-2.088049480E0,3.073947006E0
1.493042492E1,-5.906354392E-1,1.844903250E0,-2.193487935E0,2.926415477E0
1.494043292E1,-2.948534507E-1,1.435639670E0,-2.183240105E0,2.629550755E0
1.495044192E1,2.255370480E-1,9.191878554E-1,-2.148160904E0,2.347417420E0
1.496044992E1,7.554988539E-1,4.017338285E-1,-2.020556824E0,2.194269461E0
1.497045892E1,1.378600373E0,-7.290483892E-2,-1.823851227E0,2.287419376E0
1.498046692E1,1.947388276E0,-6.662294126E-1,-1.760786667E0,2.708607099E0
1.499047592E1,2.409446366E0,-1.219480678E0,-1.774593990E0,3.231369485E0
1.500048392E1,2.658813742E0,-1.502960418E0,-1.805295673E0,3.547854704E0
1.501049292E1,2.471390600E0,-1.388772482E0,-1.939852384E0,3.435038249E0
1.502050092E1,1.911956488E0,-6.829711604E-1,-2.105810398E0,2.925143526E0
1.503050992E1,1.753972907E0,4.998118079E-1,-1.975314578E0,2.688512690E0
1.504051792E1,2.310003939E0,1.486333568E0,-1.486026004E0,3.123072039E0
1.505052692E1,2.853990292E0,2.267512223E0,-8.584551653E-1,3.744838787E0
1.506053492E1,3.252598491E0,3.002290299E0,-3.005302200E-1,4.436604828E0
1.507054392E1,3.669312594E0,3.692481601E0,7.799454778E-2,5.206184633E0
1.508055192E1,3.939201942E0,4.350222318E0,2.397627389E-1,5.873604714E0
1.509055992E1,3.995231717E0,4.946177847E0,1.498226219E-1,6.359952718E0
1.510056892E1,3.845562876E0,5.394991994E0,-2.389309725E-1,6.629583732E0
1.511057692E1,3.685205326E0,5.708333171E0,-9.630092284E-1,6.862448008E0
1.512058592E1,4.168149671E0,5.443635566E0,-2.006624956E0,7.143751365E0
1.513059392E1,5.648315011E0,4.394673729E0,-3.072753048E0,7.788352261E0
1.514060292E1,6.568850357E0,3.354181876E0,-3.613885375E0,8.213434031E0
1.515061092E1,6.192175648E0,2.656975670E0,-3.650386034E0,7.663411588E0
1.516061992E1,5.002811639E0,2.169675149E0,-3.850593821E0,6.675528992E0
1.517062792E1,3.262617695E0,1.798870752E0,-4.731140059E0,6.021984430E0
1.518063692E1,1.609104046E0,1.413371426E0,-5.604379617E0,5.999658783E0
1.519064492E1,6.213257200E-1,1.291378334E0,-5.198883398E0,5.392781493E0
1.520065392E1,1.590267241E-1,1.480892441E0,-4.410101023E0,4.654817177E0
1.521066192E1,2.765908420E-2,1.675768152E0,-3.575423267E0,3.948748595E0
1.522067092E1,4.250610030E-1,1.783464509E0,-2.199232532E0,2.863223051E0
1.523067892E1,1.086790983E0,1.670131144E0,-5.138639096E-1,2.057792214E0
1.524068792E1,2.253927387E0,1.479433268E0,1.703142477E0,3.188981931E0
1.525069592E1,3.360963770E0,1.314717496E0,3.721779660E0,5.184226402E0
1.526070492E1,3.963295394E0,1.321059678E0,4.989463030E0,6.507507233E0
1.527071292E1,4.020812700E0,1.533275892E0,5.607436541E0,7.068324716E0
1.528072192E1,4.301648036E0,1.389598986E0,5.935665314E0,7.461051125E0
1.529072992E1,4.716706792E0,1.078699898E0,6.185278273E0,7.852934722E0
1.530073892E1,4.937931519E0,8.356404993E-1,6.350872589E0,8.087956811E0
1.531074692E1,4.777136596E0,5.690583363E-1,6.386433016E0,7.995710608E0
1.532075492E1,4.393890787E0,2.023165852E-1,6.257823508E0,7.649023683E0
1.533076392E1,5.051998417E0,-1.651247853E-1,5.710436414E0,7.626207330E0
1.534077192E1,5.324706708E0,-3.781759813E-1,5.315738833E0,7.533432016E0
1.535078092E1,4.714867843E0,-3.694148058E-1,5.082024454E0,6.942147983E0
1.536078892E1,4.062432012E0,7.181813389E-2,4.870347061E0,6.342617141E0
1.537079792E1,3.297439619E0,9.701586190E-1,3.805208610E0,5.127760559E0
1.538080592E1,2.564162523E0,1.983968457E0,2.779186277E0,4.270238477E0
1.539081492E1,2.172563381E0,2.777153201E0,3.170640993E0,4.741895808E0
1.540082292E1,1.791886838E0,3.211112496E0,3.667181284E0,5.193295724E0
1.541083192E1,2.218440635E0,3.310563694E0,4.402149102E0,5.938032295E0
1.542083992E1,2.809745581E0,3.029674564E0,5.057791253E0,6.531068102E0
1.543084892E1,3.222071933E0,2.390108455E0,5.672191531E0,6.947526375E0
1.544085692E1,3.112679299E0,1.755345833E0,6.680312905E0,7.576053849E0
1.545086592E1,2.764634312E0,1.112839159E0,7.228050832E0,7.818333115E0
1.546087392E1,1.905391234E0,3.470462823E-1,7.140381188E0,7.398378227E0
1.547088292E1,1.711474174E-1,-5.058303469E-1,6.453570746E0,6.475625928E0
1.548089092E1,-1.275243235E0,-1.249945841E0,6.349607252E0,6.595917083E0
1.549089992E1,-2.311977959E0,-1.830306553E0,6.083816217E0,6.760775394E0
1.550090792E1,-3.403632656E0,-2.300291714E0,5.670892864E0,7.002505488E0
1.551091692E1,-4.447887484E0,-2.688238100E0,5.023097384E0,7.227851305E0
1.552092492E1,-5.483894230E0,-3.048236842E0,3.949356509E0,7.413653661E0
1.553093392E1,-6.450620241E0,-3.353621713E0,2.918306448E0,7.834142749E0
1.554094192E1,-7.076872240E0,-3.654551590E0,2.240005459E0,8.273783445E0
1.555095092E1,-7.223509299E0,-3.963376378E0,1.870898217E0,8.449124159E0
1.556095892E1,-6.930188988E0,-4.164129418E0,1.525593820E0,8.227692856E0
1.557096792E1,-5.955747576E0,-4.216242143E0,1.048338231E0,7.372017366E0
1.558097592E1,-4.449504240E0,-3.770127655E0,4.362935042E-1,5.848273466E0
1.559098392E1,-2.839554686E0,-2.964995003E0,-4.308591020E-1,4.127942072E0
1.560099292E1,-1.323192742E0,-2.241506732E0,-1.439186298E0,2.974298012E0
1.561100092E1,1.399671400E-1,-1.737596610E0,-2.338433979E0,2.916694405E0
1.562100992E1,1.213093180E0,-1.533617662E0,-1.837234042E0,2.683096554E0
1.563101792E1,1.502219868E0,-1.464457087E0,-2.479777846E-1,2.112532147E0
1.564102692E1,8.756404245E-1,-1.251565813E0,4.213880745E-1,1.584528651E0
1.565103492E1,8.164467216E-2,-6.404545936E-1,5.483969074E-1,8.471051334E-1
1.566104392E1,-5.160460174E-1,1.709614760E-1,7.921997800E-1,9.607870783E-1
1.567105192E1,-5.914710063E-1,9.555110514E-1,7.768286195E-1,1.366126650E0
1.568106092E1,1.465727395E-1,1.682166175E0,-1.537010801E-1,1.695520755E0
1.569106892E1,1.150117498E0,2.474330872E0,-6.023836648E-1,2.794270854E0
1.570107792E1,1.813778229E0,3.141618338E0,-7.096993679E-1,3.696380722E0
1.571108592E1,2.015550438E0,3.803129632E0,6.696892101E-1,4.355998417E0
1.572109492E1,1.404226381E0,4.032888370E0,2.027520273E0,4.727248544E0
1.573110292E1,4.033456135E-1,3.715597984E0,2.649481001E0,4.581277729E0
1.574111192E1,-5.931064725E-1,2.979109597E0,2.554533913E0,3.968943536E0
1.575111992E1,-1.584086149E0,1.943201669E0,1.695344630E0,3.026475685E0
1.576112892E1,-2.232274563E0,9.978451851E-1,1.232184339E0,2.738069207E0
1.577113692E1,-2.492554012E0,5.850691822E-1,1.320863212E0,2.880939270E0
1.578114592E1,-2.514804422E0,8.360775787E-1,1.482539309E0,3.036641204E0
1.579115392E1,-2.397495242E0,1.712032876E0,1.506797653E0,3.308999724E0
1.580116292E1,-2.010410736E0,2.874535069E0,1.376125539E0,3.768079708E0
1.581117092E1,-1.185637579E0,3.813977972E0,1.179238971E0,4.164465030E0
1.582117992E1,-2.082497549E-1,4.068187426E0,1.166506074E0,4.237245959E0
1.583118792E1,5.427122444E-1,3.501490780E0,1.087179238E0,3.706336866E0
1.584119592E1,1.094925629E0,2.407218285E0,8.665991673E-1,2.782904260E0
1.585120492E1,1.231672708E0,8.421341246E-1,3.940690058E-1,1.543210266E0
1.586121292E1,1.256671309E0,-6.394921419E-1,-1.183961767E-1,1.414987856E0
1.587122192E1,1.156086336E0,-1.808247932E0,-7.341857529E-1,2.268330866E0
1.588122925E1,9.946833032E-1,-2.271844718E0,-1.248798033E0,2.776719255E0
1.589123825E1,7.345892107E-1,-2.082134437E0,-1.633832214E0,2.746691250E0
1.590124625E1,7.081311446E-1,-1.416304097E0,-1.657067879E0,2.291994976E0
1.591125525E1,7.800945818E-1,-9.445431367E-1,-2.455228311E0,2.743875972E0
1.592126325E1,1.151861138E0,-1.215831139E0,-5.040367135E0,5.311339784E0
1.593127225E1,2.714313174E0,-2.119944580E0,-7.536273356E0,8.285956621E0
1.594128025E1,6.281382524E0,-3.509006499E0,-7.895338590E0,1.068200658E1
1.595128925E1,1.185240904E1,-3.994953097E0,-5.921562415E0,1.383850251E1
1.596129725E1,1.587090449E1,-1.669990810E0,-6.030646316E0,1.705998750E1
1.597130625E1,1.195147257E1,5.092781577E-1,-3.556964192E0,1.247994611E1
1.598131425E1,4.574163954E0,-1.091675455E0,2.966718763E0,5.560229437E0
1.599132325E1,-1.220109254E-1,-1.971293448E0,7.632156583E0,7.883571439E0
1.600133125E1,-4.878778746E0,-6.849022034E-1,1.176393599E1,1.275389207E1
1.601134025E1,-1.028247491E1,8.031662330E-1,1.274695351E1,1.639692624E1
1.602134825E1,-1.502585202E1,6.717953771E-2,6.115795809E0,1.622293747E1
1.603135725E1,-1.830148912E1,-2.316664795E0,-2.589621300E0,1.862840783E1
1.604136525E1,-1.983365024E1,-4.008378304E0,-6.033897952E0,2.111512972E1
1.605137425E1,-1.344766279E1,-1.345261596E0,1.459769667E0,1.359339143E1
1.606138225E1,-2.453329135E0,1.215743723E0,1.008049337E1,1.044572655E1
1.607139125E1,1.432975971E0,-5.979991302E-1,4.496816985E0,4.757350743E0
1.608139925E1,5.950540631E0,-2.008454842E0,-3.275846436E0,7.083360398E0
1.609140825E1,1.136393615E1,-2.274640856E0,-1.582003371E0,1.169682737E1
1.610141625E1,1.296322448E1,-2.021518984E0,1.988492448E0,1.326973361E1
1.611142525E1,1.015191710E1,-1.016048737E0,2.507528731E0,1.050625891E1
1.612143325E1,5.862093893E0,1.865048370E-1,3.976344625E0,7.085918814E0
1.613144125E1,1.989215748E0,8.032662204E-1,4.819060548E0,5.274993884E0
1.614145025E1,-5.934988207E-1,7.842148224E-1,4.478073735E0,4.584798591E0
1.615145825E1,-1.917485615E0,2.941930076E-1,3.388778974E0,3.904756529E0
1.616146725E1,-2.389902048E0,-6.063375521E-1,2.329713734E0,3.392173803E0
1.617147525E1,-2.492842280E0,-1.862643995E0,1.933364606E0,3.663550734E0
1.618148425E1,-2.435464137E0,-2.865432708E0,2.482278700E0,4.505984655E0
1.619149225E1,-1.870248883E0,-3.314790646E0,3.334105169E0,5.059834503E0
1.620150125E1,-1.043559594E0,-3.024797109E0,3.613175231E0,4.826328773E0
1.621150925E1,3.296660185E-3,-2.110071556E0,3.388651213E0,3.991913060E0
1.622151825E1,9.472506899E-1,-1.160078230E0,2.802891182E0,3.177933975E0
1.623152625E1,1.886088406E0,-1.489809152E-1,2.058254993E0,2.795699985E0
1.624153525E1,2.809501752E0,8.436073306E-1,1.048375069E0,3.115134621E0
1.625154325E1,3.533224497E0,1.844503008E0,1.761944416E-1,3.989600378E0
1.626155225E1,4.036512474E0,2.572980709E0,-3.994466901E-1,4.803459206E0
1.627156025E1,3.869710708E0,2.904519591E0,-3.989800823E-1,4.854902689E0
1.628156925E1,2.891707757E0,2.877401082E0,3.092759004E-1,4.091095491E0
1.629157725E1,1.157649881E0,2.338544199E0,1.040367014E0,2.809146800E0
1.630158625E1,-5.478437608E-1,1.539678593E0,1.327059214E0,2.105190992E0
1.631159425E1,-1.608746781E0,7.216165781E-1,9.570360053E-1,2.006169137E0
1.632160325E1,-2.310804423E0,1.009463310E-1,6.688732311E-1,2.407778778E0
1.633161125E1,-2.672730700E0,-2.649782717E-1,7.451440197E-1,2.787282276E0
1.634162025E1,-2.718158888E0,-4.417010093E-1,1.235476029E0,3.018259190E0
1.635162825E1,-2.500043126E0,-5.692401847E-1,1.709282345E0,3.081541198E0
1.636163625E1,-1.915411608E0,-6.167341939E-1,1.439605544E0,2.474192154E0
1.637164525E1,-1.150381792E0,-6.618100870E-1,7.632084078E-1,1.530966339E0
1.638165325E1,-3.697656387E-1,-7.372496939E-1,-1.544542015E-3,8.247824709E-1
1.639166225E1,3.092317539E-1,-5.546057734E-1,-4.015034482E-1,7.512768201E-1
1.640167025E1,9.495153165E-1,-3.071811354E-1,-3.550189608E-1,1.059234652E0
1.641167925E1,1.288767260E0,-1.510484907E-1,-2.193916243E-1,1.316005085E0
1.642168725E1,1.511278374E0,3.284936517E-2,1.517937183E-1,1.519237552E0
1.643169625E1,1.600354273E0,3.151614153E-1,2.968713248E-1,1.657888144E0
1.644170425E1,1.304102168E0,6.701903164E-1,-6.613610208E-2,1.467723240E0
1.645171325E1,1.166982037E0,1.001946715E0,1.106357521E-1,1.542071517E0
1.646172125E1,9.322543359E-1,1.408837495E0,9.739941001E-1,1.950021985E0
1.647173025E1,3.985625911E-1,1.771288267E0,1.568219437E0,2.399088674E0
1.648173825E1,-3.748065233E-1,2.017376085E0,1.395191848E0,2.481299355E0
1.649174725E1,-7.796162796E-1,2.209380521E0,5.366820109E-1,2.403578875E0
1.650175525E1,-7.476419502E-1,2.225523660E0,-3.700404578E-1,2.376731787E0
1.651176425E1,-4.061826825E-1,1.954509161E0,-6.903094161E-1,2.112254133E0
1.652177225E1,-1.738307047E-1,1.270554645E0,-8.149097809E-1,1.519409152E0
1.653178125E1,-2.792326140E-1,2.131270637E-1,-1.066031613E0,1.122415876E0
1.654178925E1,-2.134958768E-1,-6.560160810E-1,-1.393893766E0,1.555274065E0
1.655179825E1,-1.839358628E-1,-1.173278173E0,-1.967031997E0,2.297744318E0
1.656180625E1,-1.415920812E-1,-1.176717213E0,-1.844596271E0,2.192543528E0
1.657181525E1,8.016474187E-2,-8.302123828E-1,-5.846303487E-1,1.018563513E0
1.658182325E1,1.237013555E-1,-4.844801161E-1,5.247729868E-1,7.248514992E-1
1.659183125E1,-2.207440853E-1,-1.162267135E-1,2.881531262E-1,3.811414754E-1
1.660184025E1,-5.093451083E-1,4.872832713E-1,-3.283872324E-1,7.776346187E-1
1.661184825E1,-8.648838866E-1,9.209155615E-1,-3.136972725E-1,1.301735606E0
1.662185725E1,-1.320432857E0,1.027782637E0,9.412116855E-2,1.675929256E0
