Time (s),Linear Acceleration x (m/s^2),Linear Acceleration y (m/s^2),Linear Acceleration z (m/s^2),Absolute acceleration (m/s^2)
0.042397151,0.0516618490219116,-0.117954254150391,-0.354916572570801,0.37755519623221
0.050331722,-0.068897008895874,-0.186080694198608,-0.136410713195801,0.240791829726054
0.058205257,-0.133577466011047,-0.235481977462769,0.493109703063965,0.562540558885793
0.066200862,-0.238812565803528,-0.235942602157593,1.27712917327881,1.32051477778114
0.07416595,-0.181669116020203,-0.344008445739746,1.24159812927246,1.3011192847194
0.082070003,0.148277521133423,-0.664354562759399,0.477317810058594,0.831375667271924
0.089974056,0.37758070230484,-0.890482664108276,-0.342459678649902,1.02606295778153
0.097878108,0.0964592695236206,-1.16486120223999,-0.943577766418457,1.5021800865543
0.105812679,-0.644517540931702,-1.13752150535584,-0.749809265136719,1.50717350354912
0.113777767,-0.863674998283386,-0.571133852005005,-0.292186737060547,1.0758724222137
0.121620784,-0.798052072525024,-0.201175689697266,0.319136619567871,0.88272699660533
0.129585872,-0.642597556114197,-0.0439953804016113,0.733821868896484,0.976402451805274
0.137489925,-0.444988608360291,-0.192544460296631,1.00413799285889,1.11507010517905
0.145455013,-0.204556107521057,-0.207335233688355,1.1517333984375,1.18799028671499
0.153420101,0.18170702457428,-0.116580963134766,1.0739221572876,1.09540739620395
0.161293636,0.455680966377258,-0.0264723300933838,0.830893516540527,0.948013693576295
0.169228206,0.483709812164307,0.0635862350463867,0.432000160217285,0.651646015946667
0.177132259,0.384032368659973,0.127294063568115,0.212180137634277,0.456842477890108
0.185097347,0.285850405693054,0.0566790103912354,0.00891685485839844,0.291551839223112
0.193031917,0.091722846031189,-0.114118337631226,-0.292898178100586,0.327452925170044
0.200905452,0.0396473407745361,-0.188738703727722,-0.237049102783203,0.305592027130347
0.208840022,0.263189315795898,0.0225341320037842,-0.147035598754883,0.302317499254483
0.216744075,0.600571751594544,0.304193019866943,0.0412988662719727,0.674481592413358
0.224648128,0.670481860637665,0.516459941864014,0.310104370117188,0.901355377950397
0.232613216,0.405010938644409,0.533833026885986,0.461813926696777,0.813808124748688
0.240517268,0.240828514099121,0.407457590103149,0.513951301574707,0.698688772863993
0.248451839,0.261884391307831,0.217709541320801,0.637731552124023,0.722967780310646
0.256355892,0.234400928020477,0.0486648082733154,0.705784797668457,0.745281315505121
0.264229427,0.24910581111908,-0.0276319980621338,0.514665603637695,0.572449051023717
0.272163997,0.330002784729004,-0.0147981643676758,0.146932601928711,0.361538397832223
0.280037532,0.621230900287628,0.0815603733062744,-0.172816276550293,0.649957992032365
0.28800262,0.679139912128449,0.00926923751831055,-0.349631309509277,0.763910329553921
0.295876155,0.381489306688309,-0.265517234802246,-0.955206871032715,1.06228699491365
0.303871761,-0.871542036533356,-0.575221300125122,-1.66041421890259,1.96148934330428
0.311806331,-1.1756899356842,-0.907103896141052,-1.25142669677734,1.94194569457296
0.319679866,-0.484923183917999,-0.22561240196228,0.309750556945801,0.618058943587578
0.327614436,0.113693296909332,0.13918662071228,1.75682258605957,1.76599113249089
0.335487972,0.526738703250885,0.0735657215118408,1.77767944335938,1.85553490407119
0.343422542,0.801490187644959,-0.190321803092957,0.488644599914551,0.95780084289447
0.351357112,1.12253522872925,-0.519583582878113,-0.823174476623535,1.48582255276299
0.359261165,1.05818593502045,-1.24444174766541,-1.86797380447388,2.4814751400343
0.367226253,0.845901489257813,-1.70822393894196,-2.25891971588135,2.95572269299751
0.375130306,1.13562750816345,-1.41867566108704,-1.35466289520264,2.26658377923629
0.383125911,1.15133082866669,-1.04015707969666,0.304471969604492,1.58119973683157
0.391060481,-0.0618530809879303,-1.53957033157349,1.94995784759521,2.48524409603708
0.398964534,-0.183306485414505,-1.51767361164093,2.1806116104126,2.6630811956327
0.406929622,-0.451822340488434,-1.09334456920624,2.06295013427734,2.37808936562362
0.414833675,-0.423277199268341,-0.645627558231354,1.06454563140869,1.31501176143773
0.422768245,-0.524669826030731,-0.566272497177124,0.164237022399902,0.789250763023464
0.430672298,0.198243737220764,-0.519178986549377,-0.947964668273926,1.09885595585472
0.438545833,0.439748078584671,-0.417771935462952,-1.72448348999023,1.82804679095702
0.446480403,-0.814684629440308,-0.535771608352661,-1.26608562469482,1.59804101036925
0.454384456,-1.67407548427582,-0.584071278572083,-1.38558483123779,2.25022516874699
0.462349544,-1.45185661315918,-0.307520985603333,-1.60102367401123,2.18305602001069
0.470314632,-0.937970638275147,0.14009153842926,-1.33860492706299,1.64051141665124
0.478218684,-0.301697611808777,0.619310021400452,-0.947102546691895,1.17114029284643
0.486183772,0.335746228694916,0.918861865997315,0.16499137878418,0.992096171719269
0.494087825,0.125079199671745,1.2277649641037,0.479782104492188,1.32410063101791
0.502052913,-0.342388153076172,1.21734440326691,1.52240085601807,1.97910621492044
0.510018001,0.146224230527878,0.999254465103149,1.19073009490967,1.56132289118735
0.517922054,0.589690804481506,0.858899474143982,0.22453784942627,1.06576770330116
0.525887142,0.698582172393799,0.693200707435608,0.89688777923584,1.33152242223639
0.533760677,0.187590375542641,0.613617062568665,2.05486392974854,2.15271498769652
0.541756282,-0.551676154136658,0.547782897949219,0.736696243286133,1.07104343385344
0.54972137,-0.492700308561325,0.425096154212952,1.12950801849365,1.30355233812246
0.557686458,0.52492743730545,0.817267179489136,1.5870246887207,1.86067778503298
0.565621028,0.622668862342835,1.01932621002197,2.20111846923828,2.50432924157167
0.573525081,-0.0311819985508919,0.825043499469757,2.51537704467773,2.64741208918117
0.581398616,-0.594359874725342,0.420524716377258,2.0626974105835,2.18742435421103
0.589363704,-0.660733759403229,0.235416889190674,1.18537521362305,1.3773542062967
0.597237239,0.230521157383919,0.387080788612366,-0.176618576049805,0.483906666951648
0.605141292,0.79036957025528,0.646919846534729,-0.769429206848145,1.27875355318255
0.613045345,0.504047811031342,0.760511636734009,-0.706357002258301,1.15385543290859
0.620979915,0.0764359682798386,0.658186793327332,-0.389949798583984,0.768838837190917
0.628914485,0.160908058285713,0.478240370750427,-0.0714330673217773,0.50961548106762
0.63678802,0.189432084560394,0.277917385101318,0.450309753417969,0.562051120117915
0.644722591,0.0965762436389923,0.0554707050323486,0.91690731048584,0.923646569838583
0.652535091,-0.0500321537256241,-0.222535371780396,1.17793369293213,1.19981373264544
0.660530696,-0.0999927669763565,-0.425291419029236,1.11187648773193,1.1946299295257
0.668495784,-0.00621221959590912,-0.531303346157074,0.879240989685059,1.02732008412781
0.676369319,0.0390450581908226,-0.497182488441467,0.460620880126953,0.67888624863883
0.684334407,0.282319784164429,-0.307137131690979,-0.170458793640137,0.450659381931922
0.692207942,0.655590951442719,0.0537924766540527,-0.662445068359375,0.933555887321055
0.700081477,0.845817446708679,0.453129410743713,-1.42744731903076,1.71998234428317
0.708016048,0.726332008838654,0.764735102653503,-2.29596710205078,2.52662678248955
0.715920101,0.38036373257637,0.790831923484802,-2.50797176361084,2.65706869827097
0.723854671,0.27265927195549,0.628047823905945,-1.57736015319824,1.71954999944575
0.731758724,0.524619221687317,0.259440302848816,-1.19409084320068,1.3298073320304
0.739754329,-0.0167909637093544,-0.174541831016541,-0.0288639068603516,0.177707378451595
0.747749934,-0.169170305132866,-0.35705578327179,0.729349136352539,0.829492367176921
0.755684505,-0.139517083764076,-0.466302275657654,0.906697273254395,1.02907860451595
0.763588558,-0.0243318192660809,-0.560018420219421,0.503593444824219,0.753537673964466
0.771462093,0.0568117573857307,-0.586102724075317,0.157016754150391,0.609424515448539
0.77930511,0.181633800268173,-0.437566161155701,-0.0645179748535156,0.478139678198321
0.787300716,0.381221294403076,-0.281809449195862,-0.144612312316895,0.495639951815903
0.795174251,0.626776099205017,-0.117427706718445,-0.133787155151367,0.651564691894294
0.803139339,0.625279784202576,-0.0337402820587158,-0.231115341186523,0.667478476130567
0.811043392,0.467689037322998,-0.0452337265014648,-0.314533233642578,0.565429288869067
0.819038997,0.290111482143402,-0.132043600082397,-0.42010498046875,0.527340856570786
0.826973567,0.312704622745514,-0.169816374778748,-0.371061325073242,0.514109219130061
0.834847102,0.255507975816727,-0.241069316864014,-0.126483917236328,0.37335897278449
0.84281219,0.112806171178818,-0.319851756095886,6.58035278320313E-05,0.339161292696781
0.850685726,0.162422269582748,-0.475583553314209,0.216886520385742,0.547357719014188
0.858681331,0.128033488988876,-0.640173614025116,0.480672836303711,0.810716476924515
0.866615901,-0.0207515060901642,-0.733985126018524,0.674383163452148,0.996974142778621
0.874519954,-0.100847646594048,-0.806962192058563,0.927591323852539,1.23360605191529
0.882485042,-0.178516715764999,-0.829286754131317,1.13513278961182,1.41707839883229
0.890328059,-0.164739981293678,-0.901184856891632,1.40990924835205,1.6814034305651
0.898323665,-0.208666503429413,-0.993160367012024,1.65401935577393,1.94053839269717
0.906288753,-0.457901656627655,-1.1237370967865,1.58763885498047,1.99826327686824
0.914162288,-0.527944028377533,-1.25728106498718,1.19673347473145,1.81429093119533
0.922066341,-0.50563645362854,-1.27227103710175,0.847010612487793,1.60989713732056
0.929939876,-0.527218103408814,-1.19288337230682,0.574139595031738,1.42497927811996
0.937874446,-0.536843955516815,-1.0857390165329,0.353812217712402,1.26182951701065
0.945839534,-0.429498970508575,-0.872387588024139,-0.0848550796508789,0.976078815439132
0.953774104,-0.234862446784973,-0.712376356124878,-0.243963241577148,0.788770248498518
0.961708675,-0.0824290812015533,-0.638722002506256,-0.166666984558105,0.665235472336695
0.969612727,-0.0977309197187424,-0.691029846668243,-0.00159072875976563,0.697908383724823
0.977547298,-0.192156612873077,-0.577778398990631,0.0648689270019531,0.612339791211885
0.985481868,-0.284442514181137,-0.557397603988648,0.149051666259766,0.643285342613046
0.993355403,-0.315729200839996,-0.548032641410828,0.428033828735352,0.76369998222904
1.001320491,-0.409359157085419,-0.659382700920105,0.862514495849609,1.16029811743064
1.009224544,-0.412852615118027,-0.60401314496994,0.971940040588379,1.21653056007862
1.017159114,-0.361761271953583,-0.517787277698517,0.72716236114502,0.963192598755781
1.025093684,-0.229259639978409,-0.369352430105209,0.352521896362305,0.559689992373036
1.03296722,-0.157049626111984,-0.129664123058319,0.039301872253418,0.207417470414189
1.04090179,0.0820728465914726,0.134630620479584,-0.245256423950195,0.291568293213071
1.048866878,0.402686208486557,0.390713036060333,-0.410176277160645,0.695023335865874
1.056740413,0.603044927120209,0.623337924480438,-0.599203109741211,1.05416209329711
1.064674983,0.645453870296478,0.746997714042664,-0.781252861022949,1.25895683656042
1.072548518,0.524178743362427,0.793140947818756,-0.843811988830566,1.27116269241747
1.080483089,0.377108305692673,0.737874925136566,-0.770251274108887,1.13135189248706
1.088356624,0.295501738786697,0.575021088123322,-0.558076858520508,0.854061068910537
1.096352229,0.22813355922699,0.39426451921463,-0.245504379272461,0.517457082470686
1.104256282,0.109261229634285,0.256528288125992,-0.0790510177612305,0.289816911720373
1.112190852,0.147279113531113,0.20155331492424,0.106656074523926,0.271459747057116
1.12015594,0.147753030061722,0.218487620353699,0.251811981201172,0.36466021446917
1.128059993,0.0746882930397987,0.252959638834,0.198457717895508,0.33007936286372
1.135994563,0.0627749562263489,0.230463683605194,-0.0365505218505859,0.241640528963262
1.143959651,0.124713055789471,0.203717082738876,-0.429388999938965,0.491354158782207
1.151924739,0.169079199433327,0.243034839630127,-0.733499526977539,0.790996374853469
1.159828792,0.284547507762909,0.330566197633743,-0.824438095092773,0.932705456096572
1.167702327,0.391707986593246,0.422612816095352,-0.857897758483887,1.03345309671056
1.175636897,0.429523646831512,0.445752948522568,-0.817143440246582,1.02513884729924
1.183571468,0.493268966674805,0.480101883411407,-0.582511901855469,0.90173843643425
1.191445003,0.568627595901489,0.518689453601837,-0.436524391174316,0.884833112054803
1.199379573,0.615592837333679,0.555410265922546,-0.568269729614258,1.00516943370983
1.207283626,0.488606512546539,0.442222058773041,-0.761772155761719,1.00727031657952
1.215218196,0.3041832447052,0.309851944446564,-0.948732376098633,1.0433737562803
1.223152767,0.118192568421364,0.213183343410492,-1.10340881347656,1.13001222594956
1.231117854,0.00328615307807922,0.206824779510498,-1.14187812805176,1.1604623852347
1.239021907,0.0134768486022949,0.291263580322266,-1.25306129455566,1.28653748743824
1.246986995,0.0662671029567719,0.389471173286438,-1.2641429901123,1.32443822929024
1.254921565,0.234534442424774,0.557880997657776,-1.22028923034668,1.3621099140419
1.262856136,0.697716295719147,0.834409832954407,-1.14970779418945,1.58267994574488
1.270760188,1.01516079902649,1.07207846641541,-1.36129760742188,2.00824173395641
1.278694759,1.17425203323364,1.24749290943146,-1.9664421081543,2.60806460068715
1.286598811,1.19846034049988,1.28406190872192,-2.33180332183838,2.9193199387731
1.294533382,1.14850926399231,1.16285300254822,-2.54147434234619,3.02165392919434
1.302467952,0.901822090148926,0.870373070240021,-2.7420449256897,3.01490343762122
1.310341487,0.432493835687637,0.390113890171051,-3.0701732635498,3.12493258062126
1.318306575,-0.128763198852539,-0.0613661408424377,-3.34885358810425,3.35188993243802
1.326210628,-0.503874361515045,-0.39006981253624,-3.64792919158936,3.70316502706725
1.334145198,-0.707478761672974,-0.4786117374897,-4.11991786956787,4.207531181758
1.342079768,-0.816877841949463,-0.35316789150238,-4.34788942337036,4.43803553457069
1.350014339,-0.812932968139648,-0.0910158753395081,-4.48705577850342,4.56101013588581
1.357979427,-0.659875631332398,0.118286609649658,-4.44151496887207,4.49182399360921
1.365852962,-0.523893356323242,0.281903743743897,-4.13473796844482,4.17731876174607
1.373848567,-0.246254950761795,0.533305883407593,-3.39907026290894,3.44945435079864
1.381844173,-0.421569138765335,0.550334990024567,-2.83028602600098,2.91395060510316
1.389717708,-0.511430621147156,0.423804223537445,-2.52904748916626,2.6148140474216
1.397652278,-0.0550699532032013,0.663418412208557,-2.23451709747314,2.33157100434512
1.405495296,0.436913341283798,1.11102390289307,-1.90356588363647,2.24696026977253
1.413399349,0.379263937473297,1.37437784671783,-1.65084266662598,2.18129253191067
1.421333919,0.134723156690598,1.42035722732544,-1.83801317214966,2.32676973574093
1.429207454,0.22887259721756,1.37781751155853,-2.15855121612549,2.57101285752353
1.437172542,0.746190071105957,1.48048257827759,-1.70754241943359,2.37998516822389
1.445076595,1.15070068836212,1.84782803058624,-0.0973377227783203,2.17900324393815
1.453041683,1.5123393535614,2.12834286689758,1.97019386291504,3.27088329612544
1.460976253,2.25780081748962,2.18271613121033,5.04092693328857,5.9390957718879
1.46881927,2.47555613517761,1.8149106502533,7.93969917297363,8.51240869578855
1.476814876,2.27320384979248,1.12850022315979,11.0260858535767,11.3143951560314
1.484688411,1.81165385246277,0.340820550918579,12.9570579528809,13.0875360218562
1.492561946,1.11772322654724,-0.338393449783325,13.5434331893921,13.5936896350309
1.500527034,0.674542605876923,-0.885307550430298,13.1847953796387,13.2316894759866
1.508400569,0.900840103626251,-0.928985834121704,12.9395141601563,13.0040591460199
1.51633514,1.81966543197632,-0.489343643188477,13.4879837036133,13.6189700004955
1.524208675,2.82686948776245,0.0598216056823731,14.5674886703491,14.8393563164343
1.532173763,3.75181460380554,0.528063893318176,16.4485836029053,16.8793029132876
1.540108333,4.62098073959351,0.644513249397278,18.1574974060059,18.7473617443483
1.548042903,4.48148679733276,0.37815272808075,19.6707153320313,20.1782993603086
1.556007991,3.85161089897156,-0.0403481721878052,20.3428688049316,20.7043194939302
1.563912044,3.60849952697754,-0.476500391960144,20.038703918457,20.3665897044969
1.571846614,2.83097052574158,-0.500160336494446,18.2762603759766,18.500979644611
1.579781184,2.30657577514648,0.177066087722778,14.9407234191895,15.118758563276
1.587685237,2.03095531463623,0.986855983734131,12.7247304916382,12.9235223645687
1.595650325,2.22779846191406,1.38612651824951,13.1635103225708,13.4224601591485
1.60352386,2.35563731193543,2.0048713684082,13.7164869308472,14.0609583625494
1.611488948,1.87793552875519,2.10649466514587,14.7033472061157,14.9717193631206
1.619454036,1.6107931137085,1.64900255203247,13.9810352325439,14.1697992238922
1.627358089,1.63396012783051,1.23759174346924,11.3938884735107,11.5767937517105
1.635292659,1.44257974624634,1.32875609397888,8.87686538696289,9.09094979525385
1.643166194,-0.293437778949738,1.30307507514954,5.84500789642334,5.99568408864594
1.651100765,-0.244119942188263,1.37983798980713,3.91737365722656,4.16045235456694
1.659065852,-0.735987186431885,1.12292957305908,2.63847160339355,2.96043584064184
1.666939388,-0.0545218586921692,1.29021835327148,0.974898338317871,1.61804289258622
1.674873958,0.369310677051544,1.44453883171082,0.196182250976563,1.5038518172024
1.682778011,0.805360198020935,1.13591766357422,-0.0618734359741211,1.39382291165538
1.690773616,1.06087267398834,0.454936027526855,-0.542892456054688,1.27559783568262
1.698738704,1.30240035057068,-0.483507394790649,-0.736537933349609,1.57242303507891
1.706612239,0.71541041135788,-2.18427085876465,0.740664482116699,2.41483645744322
1.714546809,-0.19678395986557,-3.19230842590332,1.44596385955811,3.51003824709958
1.722420345,-1.79301881790161,-4.09477519989014,0.345097541809082,4.48343537171523
1.730324397,-3.53884887695313,-5.82134866714478,-3.36404037475586,7.59791545895111
1.738289485,-4.2134952545166,-6.64226484298706,-9.96864414215088,12.6983105386919
1.746254573,-4.64904403686523,-5.78942346572876,-14.6305027008057,16.4067865165768
1.754189143,-4.56916618347168,-3.05036020278931,-17.4589157104492,18.3028881536088
1.762062679,-4.22028684616089,0.349759578704834,-17.1597137451172,17.6745276780212
1.769936214,-1.70920932292938,3.53437209129334,-15.3579359054565,15.8517941528842
1.777870784,0.0907773971557617,3.19596529006958,-13.6044359207153,13.9750889582862
1.785744319,0.347773671150208,1.71725726127625,-11.3512754440308,11.4857029925907
1.79367889,-0.874654769897461,-0.00722146034240723,-9.0895881652832,9.13157632232521
1.801521907,-2.83970260620117,-1.14354109764099,-8.11882019042969,8.6767988577694
1.809517513,-4.0499153137207,-2.28988456726074,-7.36038684844971,8.70750710240995
1.817482601,-4.5152473449707,-3.18865537643433,-6.90608882904053,8.8458490045064
1.825356136,-5.3751335144043,-3.77916026115418,-8.31288051605225,10.5961358547029
1.833321224,-6.44839239120483,-3.80937623977661,-11.9095067977905,14.0687406662338
1.841194759,-6.37211418151856,-3.17659568786621,-14.9492712020874,16.5582399058608
1.849190364,-4.69400453567505,-2.17324948310852,-16.533390045166,17.3236739256534
1.857155452,-2.91599416732788,-1.35760509967804,-15.9594402313232,16.2803515345259
1.865028987,-1.4124995470047,-0.82186222076416,-13.6247472763062,13.7224032451834
1.872963558,-0.853768169879913,-0.881153106689453,-11.4073181152344,11.4731101915515
1.880837093,-0.923313975334168,-1.40456056594849,-9.77543926239014,9.91889670543773
1.888832698,-1.19332695007324,-2.24493312835693,-8.69157695770264,9.05578621502479
1.896858821,-1.76900398731232,-3.06202387809753,-7.56489849090576,8.35063198296241
1.904701839,-2.33468532562256,-3.77779316902161,-6.20271825790405,7.62864277473522
1.912666927,-2.61225271224976,-3.8554220199585,-5.89159822463989,7.50993161255261
1.920570979,-2.38383054733276,-3.38322496414185,-8.30743980407715,9.28129383947921
1.92850555,-1.92372012138367,-2.97433090209961,-11.090705871582,11.6426414593315
1.93644012,-1.73733735084534,-2.79359865188599,-12.6060199737549,13.0282107012885
1.94437469,-1.50020813941956,-2.91238355636597,-12.3810710906982,12.8071668917796
1.952339778,-1.11382448673248,-3.18605446815491,-10.9323377609253,11.4414840374948
1.960243831,-0.991689682006836,-3.2734649181366,-8.37530899047852,9.04681279134592
1.968178401,-0.421202391386032,-3.19249153137207,-6.54084300994873,7.29054462390752
1.976112972,0.00645780563354492,-3.27586078643799,-5.61303997039795,6.49904018333944
1.984017024,0.0471062064170837,-3.39846563339233,-5.80368423461914,6.72566267004215
1.991951595,0.272918045520782,-3.38123393058777,-6.48821783065796,7.32148876738855
1.999855647,0.33573180437088,-3.16665959358215,-8.33230590820313,8.92007682556427
2.007820735,0.0286012291908264,-2.80967593193054,-11.0460987091064,11.3978679394045
2.015785823,0.0937143564224243,-2.59232544898987,-11.6571779251099,11.9423084364686
2.023659358,0.448140919208527,-2.7815887928009,-11.2455062866211,11.5930788894986
2.031593929,0.618781864643097,-3.14662480354309,-10.8770027160645,11.3398997674387
2.039497981,0.633524894714356,-3.30571222305298,-9.6698579788208,10.238908165641
2.047402034,1.21576642990112,-3.24073529243469,-7.68287181854248,8.4265635123614
2.055367122,2.13151478767395,-3.36147832870483,-6.25402545928955,7.41321295322527
2.063240657,2.39979457855225,-3.43902349472046,-5.85675716400147,7.20329793182057
2.071205745,2.48404240608215,-3.46931171417236,-6.07860279083252,7.42670871476894
2.079109798,2.64683675765991,-3.1463451385498,-5.78866195678711,7.10027040347972
2.087044368,3.32320761680603,-2.5361647605896,-4.55851459503174,6.1851350729286
2.094978938,4.20788621902466,-2.21502017974854,-2.71774768829346,5.47711359441954
2.102852474,4.99003076553345,-2.16669464111328,0.51505184173584,5.46445341351492
2.110756526,6.06304883956909,-2.29615879058838,4.29722881317139,7.77811557482574
2.118691097,7.50793504714966,-2.42948484420776,6.58394050598145,10.2771473603698
2.126595149,9.50470447540283,-2.03168916702271,6.13590717315674,11.4941952686448
2.13452972,9.2000150680542,-0.782195329666138,2.36828136444092,9.53209648541883
2.142494808,7.80263471603394,1.82449913024902,2.22953414916992,8.31749530270094
2.150459895,8.15538024902344,3.55953884124756,5.78248977661133,10.6121501961255
2.158363948,9.69292163848877,4.00562286376953,12.3433332443237,16.197395469552
2.166298518,9.32698726654053,2.70490646362305,23.3382549285889,25.2781200558697
2.174263606,7.55113840103149,1.5831139087677,33.1224746704102,34.0091791887371
2.182137142,5.80284309387207,0.918781757354736,40.9507942199707,41.3700942123188
2.190102229,3.86429715156555,1.24210500717163,44.0073890686035,44.1941841191789
2.198006282,0.322706758975983,2.39036273956299,45.7123031616211,45.7758957751668
2.205910335,-1.90439772605896,4.01296806335449,46.0331344604492,46.2469470519981
2.21390594,-2.52379846572876,6.07627582550049,43.8178253173828,44.3090566605502
2.221779476,-2.7523820400238,7.48430871963501,39.8220596313477,40.612644794296
2.229714046,-3.24543070793152,8.48988914489746,35.2931175231934,36.4446866179224
2.237587581,-3.71080112457275,9.93932723999023,29.0809860229492,30.9558398212148
2.245552669,-3.25809216499329,11.4595623016357,23.7837295532227,26.6007993143345
2.253456722,-2.62733483314514,13.2323369979858,17.9981422424316,22.4929045463792
2.261360774,-2.17618703842163,13.9812564849854,13.558876991272,19.5973076770658
2.269325862,-1.5749386548996,13.6870412826538,8.90935039520264,16.4070733314709
2.282295833,-2.28170228004456,11.3048734664917,4.46972942352295,12.3687028627765
2.290260921,-3.10513949394226,9.25596618652344,2.19723129272461,10.0071287928473
2.298134456,-3.98707270622253,6.88002300262451,-1.65678215026855,8.12258532579348
2.306069026,-4.43809223175049,4.88560771942139,-5.12093734741211,8.35403045013089
2.313942561,-5.0953483581543,2.29553318023682,-7.74021863937378,9.54688598747378
2.321846614,-5.26413917541504,-0.0365433692932129,-8.6957483291626,10.1650644700421
2.329781184,-5.0902943611145,-2.46117210388184,-8.23166179656982,9.98642682548805
2.33777679,-5.12604331970215,-4.35424852371216,-7.50703763961792,10.0792566414569
2.345741878,-5.03397464752197,-5.76717281341553,-7.29196739196777,10.5723210061563
2.353645931,-4.79768228530884,-7.06356906890869,-7.68816184997559,11.4899780649673
2.361580501,-4.38375616073608,-7.30332660675049,-8.65779209136963,12.1455037564954
2.369484554,-3.71071839332581,-6.87488842010498,-10.3570537567139,12.9731293180528
2.377388606,-3.39493298530579,-6.20660495758057,-11.6293745040894,13.6121220399519
2.385353694,-3.37537884712219,-5.67686748504639,-12.8296928405762,14.4298657370021
2.393257747,-3.02827382087708,-5.34810304641724,-14.0591678619385,15.3438212157034
2.401131282,-2.62149810791016,-5.19335746765137,-14.3885917663574,15.5201413374839
2.40909637,-2.3352427482605,-5.15241003036499,-13.9412078857422,15.0451974107284
2.416969905,-1.87964498996735,-5.14550876617432,-13.5883903503418,14.6510640591169
2.424904476,-1.75611305236816,-5.23668622970581,-13.0607681274414,14.1806374962439
2.432839046,-1.97444367408752,-5.25974416732788,-12.637638092041,13.8301566539678
2.440773616,-2.16379380226135,-5.11113262176514,-12.014612197876,13.2346736477076
2.448708186,-2.40833950042725,-5.01637172698975,-11.3701171875,12.6587380615187
2.456581722,-2.53476524353027,-5.02625703811646,-11.1865968704224,12.5231084078342
2.464516292,-2.58767604827881,-4.76528167724609,-11.2339458465576,12.4741940051341
2.472389827,-2.24138450622559,-4.17937707901001,-11.6538333892822,12.5818452517288
2.480385433,-1.19144701957703,-3.12185502052307,-12.5299043655396,12.967807377471
2.48835052,-0.299266666173935,-2.16834545135498,-12.9404010772705,13.1242242656287
2.496224056,0.349326491355896,-1.77038180828094,-12.3127956390381,12.4443246981654
2.504158626,0.549842476844788,-1.82784628868103,-10.8891801834106,11.0552066408173
2.512032161,0.374451518058777,-2.07739806175232,-9.80717086791992,10.0317693892417
2.520058284,0.00182455778121948,-2.31691884994507,-8.80987930297852,9.10945056626859
2.528084407,-0.246986418962479,-2.49604034423828,-8.20413780212402,8.57899159385632
2.536018977,-0.592817068099976,-2.58885860443115,-8.2910041809082,8.70599628289636
2.543953548,-0.660729587078095,-2.51234292984009,-8.63054370880127,9.01303030583427
2.551888118,-0.366619437932968,-2.31427335739136,-8.65851879119873,8.96996202012825
2.559883724,-0.109725087881088,-1.95485699176788,-8.92822074890137,9.14038463054412
2.567879329,0.0105075240135193,-1.6119556427002,-9.31561374664307,9.45405578991044
2.575844417,0.145939230918884,-1.2642662525177,-9.92104339599609,10.0023382007216
2.58374847,0.14225035905838,-0.934711217880249,-10.4404096603394,10.4831328380971
2.591652522,0.202701777219772,-0.701033473014832,-10.6551313400269,10.6800917511975
2.599678645,0.223412275314331,-0.602357029914856,-10.6607189178467,10.6800596853006
2.607704768,0.318475544452667,-0.456119060516357,-10.7489233016968,10.7633091294239
2.615639339,0.599051475524902,-0.299742102622986,-10.9382934570313,10.9587851402674
2.623573909,0.906089901924133,-0.324015855789185,-10.7814674377441,10.8243256277843
2.631538997,0.83591639995575,-0.546357274055481,-9.91220378875732,9.96238156509192
2.63956512,0.402480095624924,-0.934132039546967,-8.45781326293945,8.5187556653209
2.64749969,0.232442185282707,-1.27255725860596,-7.54833126068115,7.65837686242366
2.655373226,0.346359431743622,-1.40787875652313,-6.85516738891602,7.00681149875494
2.663307796,0.576258301734924,-1.32432842254639,-6.39468479156494,6.55575418884468
2.671150813,0.600144147872925,-0.909166812896729,-6.16738271713257,6.26285612731798
2.679146419,1.02846443653107,0.102814435958862,-6.10379791259766,6.19069130738096
2.687080989,1.85306024551392,1.16373383998871,-5.33697986602783,5.76814205912315
2.694954524,3.17916679382324,2.05077600479126,-2.87378883361816,4.75094158930674
2.702858577,4.4073486328125,2.61072111129761,0.438454627990723,5.14128672152563
2.71076263,5.11760187149048,2.92550230026245,5.12716865539551,7.81257134654103
2.718636165,3.61809897422791,2.79838418960571,9.02066898345947,10.1140527568869
2.726601253,-0.667505025863648,2.88367772102356,12.3538475036621,12.7034919727616
2.734566341,-5.33466243743897,4.34305810928345,13.4514932632446,15.1083899894446
2.742500911,-8.14228343963623,7.024489402771,13.4439401626587,17.215683491461
2.755409847,-9.45095539093018,11.720775604248,14.6024341583252,20.9744659506437
2.763344417,-6.78400325775147,11.3758335113525,20.6065444946289,24.496162235916
2.771278987,-3.01395320892334,8.00049877166748,31.8175849914551,32.946177460056
2.779244075,1.53840351104736,2.01756501197815,47.0997276306152,47.1680145524327
2.78711761,2.18478775024414,-3.86802291870117,60.0905075073242,60.2544935361754
2.795052181,-0.819611847400665,-9.6150369644165,68.5159301757813,69.1921483064374
2.802986751,-2.228684425354,-11.7361211776733,68.6893844604492,69.7204067122407
2.810860286,-1.28809106349945,-10.2972927093506,66.8765106201172,67.6768874022185
2.818794856,0.721412837505341,-6.97284746170044,52.3691253662109,52.8362217595863
2.826729427,2.42610311508179,-3.21210384368897,31.4722099304199,31.7285925520196
2.834602962,1.74492013454437,0.986912250518799,12.472541809082,12.632618146903
2.84256805,-0.18295356631279,4.69460391998291,0.674293518066406,4.74630906299325
2.850472102,-1.22482490539551,8.11234855651856,-6.470046043396,10.4485353497507
2.858376155,-0.156256139278412,9.21473789215088,-6.40254783630371,11.2217836905842
2.866280208,1.69475531578064,8.85279846191406,-3.58608293533325,9.70073332314228
2.874275813,2.63023805618286,7.78882884979248,-2.8239049911499,8.69243616499964
2.882210384,2.84228467941284,5.59639978408814,-2.50072956085205,6.75662053682801
2.890083919,2.55424165725708,3.05805635452271,-2.59139966964722,4.75302128744989
2.898018489,2.30354475975037,1.1006555557251,-3.17168140411377,4.07152600897047
2.905892024,2.20874786376953,-1.31641554832459,-3.63419008255005,4.45183721374472
2.913796077,2.32647919654846,-3.41862392425537,-3.97500133514404,5.73586354456423
2.921761165,2.5468122959137,-5.68100738525391,-4.89529848098755,7.91985132435487
2.92975677,2.57458710670471,-7.40956735610962,-6.5876579284668,10.2434088152932
2.937721858,2.91540956497192,-8.43103790283203,-7.90539693832398,11.9196188614814
2.945625911,2.99777030944824,-8.78516006469727,-9.14201259613037,13.0285094503695
2.953560481,2.57791829109192,-8.75614166259766,-10.8165473937988,14.1532108390047
2.961495052,1.31034409999847,-8.38118648529053,-12.9370727539063,15.4702663196689
2.969399104,0.223279625177383,-7.97580528259277,-14.0378360748291,16.1469552969167
2.977364192,-0.778062343597412,-7.85691547393799,-14.2475500106812,16.2889282361361
2.985268245,-1.38011682033539,-8.09643650054932,-13.4307842254639,15.7430292941406
2.99314178,-1.64832770824432,-8.24280548095703,-12.4104442596436,14.9893279753424
3.001106868,-1.76630401611328,-7.97185039520264,-11.8761186599731,14.4122317156849
3.008980403,-1.62975418567657,-7.52416801452637,-11.7600803375244,14.0559130817454
3.016914974,-1.35312747955322,-7.05988788604736,-11.7907009124756,13.8091853107608
3.024757991,-1.11111426353455,-6.71114540100098,-11.4313650131226,13.3022612199298
3.032753597,-1.16655766963959,-6.37974214553833,-10.8438529968262,12.6353122025904
3.040749202,-1.08369469642639,-6.22468090057373,-10.2254390716553,12.020010429162
3.048622737,-0.94092583656311,-6.02368640899658,-9.69264125823975,11.4506521187561
3.056496272,-0.867678761482239,-5.88530254364014,-9.44575500488281,11.1629718299194
3.064430843,-0.961567759513855,-5.87146282196045,-9.31014728546143,11.0488701097798
3.072395931,-1.0476987361908,-5.94873237609863,-9.1411771774292,10.9565601222926
3.080330501,-1.121248960495,-5.93898105621338,-8.89928531646729,10.7576007716109
3.095253597,-1.20435297489166,-5.97496175765991,-8.94590663909912,10.8249655744998
3.103310237,-1.157222032547,-5.91122579574585,-8.87899208068848,10.7293174810811
3.111244808,-1.09915351867676,-5.80485200881958,-8.62831497192383,10.4571633130903
3.119209895,-1.34061169624329,-5.72307348251343,-8.88258647918701,10.651345096587
3.127144466,-1.7394357919693,-5.64394044876099,-9.43602561950684,11.1318587915736
3.135170589,-1.93235492706299,-5.53249406814575,-9.5550479888916,11.2089887254932
3.143288265,-1.93998670578003,-5.47980690002441,-9.12429141998291,10.8187118455448
3.151253352,-1.53402876853943,-5.50395107269287,-8.48071956634522,10.2259144352128
3.159187923,-1.0111882686615,-5.57459735870361,-8.30184173583984,10.0508314896468
3.167091976,-0.567073941230774,-5.69497203826904,-8.54125213623047,10.2814039618211
3.175026546,0.062590166926384,-5.95458984375,-9.03141784667969,10.8179279928095
3.182930599,0.8809455037117,-6.35808277130127,-9.62186813354492,11.5664008181696
3.190865169,1.1400454044342,-7.139817237854,-9.9633731842041,12.3103817537007
3.198769222,0.935694694519043,-7.58077907562256,-10.198673248291,12.7419257563429
3.206673274,0.681973814964294,-7.7074728012085,-10.3993530273438,12.9621282455077
3.214638362,0.609000086784363,-7.5437650680542,-10.4611396789551,12.911805291682
3.22260345,0.665840983390808,-7.25270938873291,-10.5573482513428,12.8258621461759
3.230476985,0.909672141075134,-6.90039443969727,-11.0681591033936,13.0746737154579
3.238442073,1.05151295661926,-6.5561695098877,-11.9410457611084,13.6630015739297
3.246315608,1.22000443935394,-6.17092847824097,-13.3346614837646,14.7438789333813
3.254250179,1.31599521636963,-5.730872631073,-14.4019546508789,15.5560612717057
3.262123714,1.6847071647644,-5.08449792861939,-14.8299541473389,15.7676218063891
3.270088802,1.37922620773315,-4.57971858978272,-14.8222532272339,15.5748283465965
3.278023372,0.748918473720551,-4.44837808609009,-14.4672698974609,15.1542352087813
3.28586639,-0.103895328938961,-4.40418863296509,-14.0612621307373,14.7352219007187
3.293831477,-0.907804489135742,-4.0858907699585,-12.409460067749,13.0963090810955
3.30173553,-1.43162333965302,-3.54297780990601,-8.99160861968994,9.76991620833096
3.309670101,-1.88478803634644,-3.06880021095276,-6.01414966583252,7.00998979169954
3.317604671,-2.34025621414185,-2.30161762237549,-2.61148071289063,4.19452909648493
3.325569759,-2.5691614151001,-0.974495649337769,1.37170124053955,3.07112299342034
3.333504329,-2.14246821403503,0.861438751220703,4.41011619567871,4.97808915444901
3.341408382,-0.781367778778076,4.13944673538208,5.5284538269043,6.95049326285485
3.349403987,0.329737186431885,7.48580551147461,7.19573879241943,10.3886797783197
3.357369075,-0.0796289145946503,10.4952020645142,12.074556350708,15.9984536191922
3.365303645,-1.02285957336426,11.7537651062012,17.2494163513184,20.8983157297354
3.373268733,-2.3038911819458,12.5501766204834,23.3956031799316,26.6489980287515
3.381142268,-3.89718294143677,12.2432622909546,31.3480129241943,33.8789524734693
3.389076839,-3.63894629478455,10.1578578948975,40.5248794555664,41.9367364256858
3.397011409,-1.04606211185455,5.143958568573,53.3550415039063,53.6126385247043
3.404915462,1.08359062671661,0.129749715328217,60.8620872497559,60.8718709095739
3.412850032,0.842621088027954,-4.4384298324585,65.6271896362305,65.7825029109216
3.420754085,-1.30757617950439,-6.56309413909912,68.1301803588867,68.4580560334452
3.428688655,-3.21582841873169,-6.64499998092651,63.8929443359375,64.3180061342113
3.436653743,-3.55694484710693,-4.83631372451782,48.8631095886231,49.2305318451579
3.444496761,-3.30722188949585,-2.242516040802,33.3564682006836,33.5949485137696
3.452553401,-4.61548519134522,1.31043362617493,17.4003257751465,18.0496891087177
3.460457454,-6.20627069473267,4.23695087432861,9.99326133728027,12.5033923717906
3.468422542,-6.34677219390869,6.53676128387451,4.78489017486572,10.2910611381558
3.476357112,-5.55647563934326,7.36518859863281,1.46492099761963,9.34164964839256
3.48420013,-4.13129568099976,7.45103025436401,-0.55901050567627,8.53802955023883
3.492165218,-1.97233128547668,7.55522441864014,-3.0510745048523,8.38335030580531
3.50006927,-0.754104852676392,7.16476678848267,-5.91261196136475,9.31995372670099
3.508003841,1.18861699104309,6.64510917663574,-10.7302618026733,12.6770976439686
3.515938411,2.72254252433777,5.94470691680908,-13.0938777923584,14.6356214000227
3.523811946,3.66337466239929,3.9149694442749,-11.6656684875488,12.838813065393
3.531746517,3.92201805114746,1.50228548049927,-8.83910751342773,9.78615904695913
3.539650569,3.74636507034302,-1.13410985469818,-4.91000699996948,6.27930132598835
3.54758514,3.82251262664795,-3.48156118392944,-2.00329065322876,5.54491158627808
3.555550227,3.54272389411926,-5.30037403106689,-0.782147407531738,6.42313101425469
3.563393245,3.41640186309814,-6.6986837387085,-1.11163997650146,7.60130968707198
3.571358333,3.35794234275818,-6.81602382659912,-1.89034080505371,7.82990076190665
3.579262386,3.12007141113281,-5.91907119750977,-2.30820941925049,7.07799972978769
3.587196956,2.85779929161072,-4.71952056884766,-2.42116117477417,6.02518984141916
3.595131526,2.62657070159912,-3.93493604660034,-2.51541662216187,5.3581635029534
3.603035579,2.61609721183777,-3.68841505050659,-3.57389259338379,5.76377293754988
3.611000667,2.63793659210205,-3.37910485267639,-4.8394570350647,6.46509114116493
3.61890472,2.66516637802124,-2.98100757598877,-6.29532241821289,7.45792211945734
3.62683929,2.32428693771362,-2.9153003692627,-7.49268436431885,8.36908627002718
3.634804378,1.80832087993622,-3.05865859985352,-8.78061008453369,9.47230332558486
3.642708431,1.35689783096313,-3.14821624755859,-9.91252040863037,10.4885889478317
3.650643001,0.951548874378204,-3.15124797821045,-11.0225286483765,11.5035623562784
3.658516536,0.533561527729034,-3.27691745758057,-11.7626008987427,12.2221788495657
3.666481624,0.0670164600014687,-3.5472559928894,-12.0810880661011,12.5912749610947
3.674507747,-0.444046318531036,-4.00304269790649,-11.7000427246094,12.3738647047698
3.6824118,-0.67428320646286,-4.37458419799805,-10.9206409454346,11.78354969468
3.690376888,-1.0235755443573,-4.88613176345825,-10.6175775527954,11.7326443564316
3.698341976,-1.11834156513214,-5.50002002716064,-10.5602159500122,11.9590580342418
3.706215511,-1.17407286167145,-6.02577495574951,-10.1576175689697,11.8686817119381
3.714150081,-1.33735120296478,-6.41499996185303,-9.4370756149292,11.4890873837976
3.722023616,-1.36941492557526,-6.45606803894043,-8.8162956237793,11.0128643089655
3.729958186,-1.18564987182617,-6.32008838653564,-8.50894451141357,10.6654310522594
3.737831722,-0.877372562885284,-5.98020076751709,-8.6676836013794,10.5669921381412
3.745796809,-0.495578289031982,-5.41554832458496,-8.8278284072876,10.3684288050306
3.753761897,-0.421388179063797,-4.95151519775391,-8.49219608306885,9.8393325517706
3.76166595,-0.337329119443893,-4.46213865280151,-8.30376434326172,9.43276070724127
3.76960052,-0.359867870807648,-4.08022594451904,-8.24945449829102,9.21038805708749
3.777596126,-0.488807022571564,-3.81455779075623,-8.44296836853027,9.27758041281977
3.785530696,-0.196650117635727,-3.29313087463379,-9.14244270324707,9.71944652788357
3.793465267,0.0250790566205978,-2.8329074382782,-9.30611515045166,9.72778354541253
3.801521907,-0.175717368721962,-2.44845032691956,-9.27861785888672,9.59784011996004
3.809517513,-0.335191547870636,-2.27969121932983,-9.39230251312256,9.67081650778577
3.817421565,-0.501393735408783,-2.2450647354126,-9.52658462524414,9.800383970337
3.825386653,-0.658682763576508,-2.30553340911865,-9.7998104095459,10.0888865266014
3.833321224,-0.684221982955933,-2.32512068748474,-10.0082712173462,10.2975646972131
3.841377864,-0.625709176063538,-2.3583390712738,-10.1242351531982,10.4140968204334
3.849342952,-0.619574725627899,-2.45942902565002,-9.99071216583252,10.3076182289295
3.85730804,-0.629392206668854,-2.50748515129089,-9.60474967956543,9.94659905399187
3.86524261,-0.765639364719391,-2.58758068084717,-8.39681243896484,8.81976397370452
3.873177181,-0.963374376296997,-2.55722284317017,-6.940185546875,7.45879710701327
3.881020198,-0.68570613861084,-2.22944116592407,-5.93893146514893,6.38055701084015
3.888954768,0.482394814491272,-1.64961886405945,-4.96172285079956,5.25096570183575
3.896828304,1.36406719684601,-1.24736702442169,-4.26147031784058,4.6450762190692
3.904762874,1.31794941425323,-0.915743470191956,-3.75141859054565,4.08028408364187
3.912666927,0.615911841392517,-0.66559636592865,-3.41420269012451,3.53258346369317
3.920570979,-0.154129952192307,-0.542088031768799,-2.28215265274048,2.35070972405361
3.92850555,-0.841018438339233,-0.555031061172485,-0.421001434326172,1.09206854189538
3.936379085,-1.92655563354492,-0.504316806793213,1.97270584106445,2.80312689440339
3.94425262,-2.41602897644043,-0.183846235275269,5.05106830596924,5.60216801647288
3.95218719,-2.56904625892639,1.12374925613403,9.21235466003418,9.62965676716564
3.960030208,-2.69780373573303,3.40904498100281,11.9804849624634,12.7448716201791
3.967964778,-2.87875294685364,7.23226022720337,13.4162502288818,15.5109179846642
3.975868831,-2.82189130783081,11.3640241622925,14.1721935272217,18.3835574655017
3.983864436,-3.36600780487061,14.0479183197021,15.6029891967773,21.2632850127685
3.991860042,-4.75098562240601,15.1191139221191,19.5540943145752,25.1698644143672
3.999764095,-6.02451038360596,13.3707008361816,23.4036178588867,27.6188286336993
4.007698665,-6.7872200012207,8.39443588256836,26.6558818817139,28.7588064429559
4.015633235,-6.3403468132019,2.61157512664795,29.3243370056152,30.1153957830991
4.023537288,-4.75407123565674,-1.53995442390442,32.8247222900391,33.2029373152375
4.031532893,-1.44201064109802,-4.31646251678467,37.9817657470703,38.2534413172615
4.039436946,1.57584393024445,-3.95185494422913,40.9123687744141,41.1329838490519
4.047371517,3.46380805969238,-1.14935743808746,39.774959564209,39.942037969154
4.055214534,3.89029312133789,1.31597781181335,33.5003814697266,33.7511738579314
4.06321014,4.38316154479981,3.89322376251221,22.8866081237793,23.6255397357233
4.07126678,4.73127555847168,7.25619697570801,11.3056116104126,14.242689944177
4.079170833,4.42114543914795,9.98066329956055,3.53414630889893,11.4738989461298
4.087105403,4.52720069885254,12.3135280609131,-3.10586547851563,13.4820220977871
4.094978938,4.38448667526245,12.7824983596802,-6.64644861221314,15.0595905281508
4.102974544,3.75560188293457,11.3250150680542,-8.2457389831543,14.5035417458311
4.110970149,3.27929496765137,8.45356941223145,-8.75382423400879,12.6034142204483
4.118874202,2.64857172966003,5.79815769195557,-8.35505676269531,10.5090693372819
4.126808772,2.31527376174927,2.75652170181274,-7.69692707061768,8.49715192372223
4.134682308,2.05670118331909,0.0708584785461426,-6.30367851257324,6.63109368591077
4.142647395,2.95179629325867,-2.45641946792603,-3.89539813995361,5.47002967341638
4.150581966,4.27534294128418,-3.84833383560181,-2.21306276321411,6.16326839994423
4.158486018,4.26048564910889,-4.9915189743042,0.044987678527832,6.56269940865197
4.166451106,3.61121535301209,-5.92283725738525,1.38062572479248,7.07297708855754
4.174446712,2.88841533660889,-6.38934421539307,1.09999084472656,7.0976504928051
4.182350765,1.67460513114929,-6.56302261352539,-0.300725936889648,6.77997081557401
4.190285335,0.266825348138809,-6.61366081237793,-1.93747758865356,6.89677638568395
4.19815887,-1.14910542964935,-6.55996990203857,-4.76064252853394,8.18641348140855
4.20609344,-1.79872763156891,-6.27477836608887,-6.9302544593811,9.52033043060366
4.214028011,-2.16776013374329,-5.69379329681397,-9.21907329559326,11.0503293405134
4.222023616,-2.0044732093811,-5.03180408477783,-10.8916006088257,12.1640424619814
4.229988704,-1.87692582607269,-4.57436561584473,-11.9982328414917,12.9771053267919
4.237892757,-0.975693106651306,-4.39427852630615,-13.3942203521729,14.1303503016622
4.245827327,-0.710626602172852,-4.38682126998901,-13.7644081115723,14.4640285427145
4.253700862,-0.094091147184372,-4.27419137954712,-13.1962728500366,13.8715241493351
4.261604915,0.575073421001434,-4.07102632522583,-12.082878112793,12.7632248381369
4.26960052,0.599257349967957,-3.95397591590881,-10.5711631774902,11.302323913258
4.277474056,0.775007605552673,-3.96356296539307,-9.15699768066406,10.0080504941266
4.285500179,0.713102579116821,-3.99551010131836,-8.19228839874268,9.14254917767763
4.293404231,0.311384171247482,-4.08116102218628,-7.53112506866455,8.57150396319011
4.301338802,-0.0926177203655243,-4.10563850402832,-7.17864561080933,8.27029614787026
4.30930389,-0.305041521787643,-3.91724348068237,-6.99382781982422,8.02193707219835
4.317177425,-0.370889008045197,-3.55374956130981,-7.29779243469238,8.12554422919793
4.325142513,-0.365343928337097,-3.23327136039734,-7.79389667510986,8.4458478116899
4.333107601,-0.501565217971802,-2.99300026893616,-8.52803993225098,9.05191048142867
4.341164241,-0.634681820869446,-2.84234261512756,-9.26093864440918,9.70807484164722
4.349098811,-0.312533855438232,-2.56507444381714,-10.2132530212402,10.5350757751898
4.356972347,0.0792582482099533,-2.24248123168945,-10.2740802764893,10.5162602417463
4.364937434,0.218228101730347,-2.00028610229492,-9.80645084381104,10.0107565222365
4.372963558,0.146736487746239,-1.95811378955841,-9.01389694213867,9.22529562091057
4.380989681,-0.0368328392505646,-2.11387658119202,-8.25295352935791,8.51945261248048
4.388954768,-0.0403895229101181,-2.37727999687195,-7.61290073394775,7.97554694563518
4.396889339,-0.00285208225250244,-2.7353401184082,-7.23778676986694,7.73741888641216
4.404823909,-0.101617515087128,-3.09547114372253,-6.98950958251953,7.64496644368854
4.412666927,-0.21314349770546,-3.46880054473877,-6.85422801971436,7.68494951941986
4.420662532,-0.125467240810394,-3.69720530509949,-6.95910549163818,7.88125740858152
4.42862762,0.151499480009079,-3.7845196723938,-7.67721700668335,8.56067767240928
4.436531673,0.550395727157593,-3.57344126701355,-8.79780101776123,9.51176748524633
4.444527278,1.0769567489624,-3.20418858528137,-10.1389560699463,10.6876138832521
4.457405696,1.44436705112457,-2.63458180427551,-11.4810276031494,11.867654034647
4.465340267,1.45744037628174,-2.63894963264465,-11.7845220565796,12.1640103467591
4.473213802,1.0744411945343,-2.89398741722107,-11.4221363067627,11.8319391843355
4.48117889,0.825898885726929,-3.12738060951233,-10.8868141174316,11.3571713059946
4.489143977,0.778042912483215,-3.25786113739014,-10.1247110366821,10.6643698145036
4.49704803,0.636034905910492,-3.31081295013428,-9.09362697601318,9.6984573191404
4.504982601,0.592178761959076,-3.25255632400513,-8.09197616577148,8.7412743118126
4.512886653,1.36718332767487,-2.89062571525574,-6.6212100982666,7.35291305827544
4.520821224,2.69578838348389,-2.37975096702576,-4.7993540763855,5.99702336364507
4.528664241,3.95212888717651,-1.56155633926392,-1.76942873001099,4.60311405161101
4.536659847,4.71599006652832,-0.279149532318115,1.36986351013184,4.91884262864527
4.544624934,5.17028665542603,2.1068320274353,4.02496147155762,6.88265356811069
4.552528987,4.13419103622437,5.08844375610352,5.31378173828125,8.43919852504478
4.560463558,1.70950746536255,7.75854110717773,5.5138111114502,9.67054749528943
4.568398128,-0.41411417722702,9.73523330688477,7.8397388458252,12.5063089383718
4.576302181,-0.301157295703888,9.94125556945801,11.385500907898,15.1178334736754
4.584297786,1.58954191207886,8.95906257629395,17.650089263916,19.8574191868029
4.592171321,3.73129987716675,7.66139602661133,28.0881996154785,29.3524538239802
4.600136409,5.37864351272583,5.84776306152344,39.1442222595215,39.9424119848004
4.608070979,7.4871678352356,4.19375038146973,50.6143951416016,51.3367531112481
4.61600555,7.42259931564331,3.15359544754028,55.4773635864258,56.0604853292211
4.62394012,4.58679962158203,2.64373254776001,54.8569259643555,55.1117989074155
4.631813655,1.46828603744507,3.17339301109314,49.4648780822754,49.5883096181447
4.639778743,-2.252192735672,5.00376892089844,37.8532676696777,38.2489208841849
4.647743831,-5.24251890182495,8.2327938079834,24.2911720275879,26.178692419497
4.655739436,-6.977219581604,11.5264768600464,14.7071971893311,19.94599987619
4.663704524,-7.89224004745483,14.9646987915039,7.8426399230957,18.6476986207527
4.671578059,-7.69645118713379,16.7348346710205,5.62748622894287,19.260286955268
4.67951263,-6.4936580657959,16.634090423584,5.20047664642334,18.5985353360268
4.687355647,-5.26507425308228,14.9934673309326,6.03063011169434,16.9968693893401
4.695351253,-3.98796796798706,12.4488172531128,6.35940361022949,14.5368137428011
4.703316341,-3.60862302780151,9.5576343536377,5.04139137268066,11.3923729559365
4.711189876,-3.96608781814575,7.09205389022827,3.249267578125,8.75127537890337
4.719185481,-4.52979755401611,4.69430351257324,-0.211735725402832,6.52689691706095
4.727059017,-4.84041738510132,3.15486645698547,-3.72721195220947,6.87567682196424
4.735054622,-4.27345609664917,1.76887774467468,-6.94673490524292,8.34556656730469
4.743050227,-3.59323024749756,0.371468305587769,-8.39810371398926,9.14206969479602
4.750923763,-2.81480884552002,-0.83132004737854,-8.54273891448975,9.03286388799968
4.758858333,-2.06214666366577,-2.1916036605835,-8.19748115539551,8.73236925242029
4.766823421,-2.12306380271912,-3.41029763221741,-7.3804931640625,8.40292860825898
4.774757991,-2.33402395248413,-4.79551219940186,-6.8256196975708,8.66219887333743
4.782692561,-2.20243120193481,-5.73734474182129,-6.94453716278076,9.27331786854109
4.790566097,-2.27362108230591,-6.48531150817871,-7.55536556243897,10.2133328040415
4.798500667,-2.4495644569397,-6.78510570526123,-8.43538761138916,11.0992697784426
4.806465755,-2.67808866500855,-6.77633666992188,-9.01381874084473,11.5905058498143
4.81446136,-2.77538299560547,-6.620924949646,-9.17995357513428,11.6537953303961
4.822426448,-2.58835077285767,-6.46412467956543,-9.17914199829102,11.5213330574682
4.830299983,-1.88613593578339,-6.19715690612793,-9.27321624755859,11.3117108370665
4.838234554,-1.11669433116913,-5.93796873092651,-9.3853063583374,11.1620094211829
4.846077571,-0.0280923843383789,-5.49864101409912,-10.0227870941162,11.432064700568
4.854073177,0.442556142807007,-5.04495811462402,-11.1012077331543,12.2018142688902
4.862129817,0.348973393440247,-4.73105955123901,-11.8593816757202,12.7730043700418
4.87003387,0.943277359008789,-4.36838150024414,-12.8623809814453,13.6166579460431
4.87796844,0.816220164299011,-4.13721132278442,-13.3956823348999,14.0437544162355
4.885841976,0.257945418357849,-4.07403182983398,-13.5538101196289,14.1552124656717
4.893715511,-0.164348363876343,-4.13563442230225,-13.2601222991943,13.8910520065699
4.901650081,-0.711975693702698,-4.3194465637207,-12.3429164886475,13.0962634156078
4.909523616,-1.20005869865417,-4.5753960609436,-11.022481918335,11.9945611689105
4.917458186,-1.49088335037231,-4.79803609848023,-9.80487728118897,11.0172365893591
4.925331722,-1.93648314476013,-5.08181238174439,-8.63709449768066,10.2065755968913
4.933327327,-2.34859251976013,-5.24121856689453,-8.02059936523438,9.8649010672906
4.941292415,-2.73143339157105,-5.22878980636597,-7.75214052200317,9.74149135834086
4.949196468,-2.98384213447571,-5.12339115142822,-7.61541652679443,9.65127036459861
4.957161556,-3.14673805236816,-4.84923648834229,-7.59706592559814,9.54633257162018
4.965157161,-3.09751892089844,-4.49816179275513,-7.94380712509155,9.6401325001154
4.973152767,-2.94119000434876,-4.11037731170654,-8.39283847808838,9.7972209327724
4.981148372,-2.74272847175598,-3.6916446685791,-9.00580978393555,10.1121416966565
4.989082942,-2.47107219696045,-3.33566522598267,-9.47752189636231,10.346800548887
4.997139583,-2.16033506393433,-2.91777515411377,-9.75638008117676,10.4099669416771
5.010079036,-1.70999670028687,-2.39122343063355,-10.0812664031982,10.5011413904612
5.018013606,-1.68288803100586,-2.26799893379211,-10.0585775375366,10.4475314484916
5.026100765,-1.81837451457977,-2.35352659225464,-9.89939785003662,10.3365202601762
5.034004817,-2.0601634979248,-2.52435660362244,-9.70263862609863,10.2351280504494
5.04190887,-2.37291526794434,-2.70652961730957,-9.62089920043945,10.2721823807424
5.049904476,-2.65032649040222,-2.82992458343506,-9.4206018447876,10.1872686610138
5.057900081,-2.74692416191101,-2.83093953132629,-8.96326923370361,9.7928548614372
5.065773616,-2.60661959648132,-2.82366871833801,-8.45925045013428,9.29120492346273
5.073708186,-2.07088470458984,-2.63830876350403,-7.6237907409668,8.32895082548441
5.081642757,-1.10686147212982,-2.16253328323364,-6.60059642791748,7.03346043735341
5.089577327,0.280829459428787,-1.32680654525757,-5.04214286804199,5.22134901108594
5.097511897,1.54987728595734,-0.51246964931488,-2.93786859512329,3.36092496572106
5.105385433,3.01007771492004,0.153581261634827,0.0502195358276367,3.0144115604148
5.113320003,3.28820395469666,0.53876256942749,2.24504852294922,4.01780950572514
5.121285091,2.19855904579163,0.689735412597656,4.47291469573975,5.03153681220639
5.129280696,-0.0450232625007629,1.29951655864716,5.95650482177734,6.09677948364717
5.137276302,-1.18281161785126,3.12001872062683,6.67732238769531,7.46459606473136
5.145180354,-1.14124417304993,6.5106954574585,8.9242467880249,11.1055740209979
5.153114925,0.118820935487747,9.00772857666016,14.7136383056641,17.2523750456392
5.161049495,2.41226196289063,9.81028747558594,25.3978958129883,27.3333836152544
5.168984065,5.19619512557983,7.6623158454895,39.4887390136719,40.5594876297646
5.176918636,6.29150390625,3.36680555343628,51.7828674316406,52.2722082992471
5.184761653,4.95424127578735,-2.40287137031555,60.9558334350586,61.2040188811454
5.192726741,1.13604009151459,-5.42079496383667,61.674674987793,61.9228644361627
5.200600276,-4.06893539428711,-5.69973707199097,55.4393730163574,55.8799366354287
5.208534847,-6.89411067962647,-4.28709506988525,46.2478179931641,46.9549636921381
5.216469417,-8.14360523223877,-2.3034086227417,33.8063278198242,34.8495595111802
5.224342952,-8.33709526062012,0.527280449867249,21.4353179931641,23.0056088710021
5.23230804,-7.81353616714478,3.66887760162354,12.8100786209106,15.4470102144359
5.240212093,-7.55624389648438,7.12921237945557,7.48799514770508,12.8059580784334
5.248146663,-7.28957653045654,9.07705593109131,5.27298641204834,12.7802682315822
5.256142268,-6.40433740615845,9.81917095184326,4.16434669494629,12.4407973695078
5.263985286,-5.31064796447754,9.1145601272583,3.55886554718018,11.1330010374078
5.271950374,-4.26684284210205,7.28377199172974,2.05334281921387,8.68766360996564
5.279945979,-3.26317477226257,5.26554012298584,-1.02030277252197,6.27815579041494
5.287941585,-2.47770118713379,3.7162344455719,-4.30000638961792,6.19995617548497
5.295906673,-1.39052855968475,2.45535659790039,-7.23429203033447,7.76513534191857
5.303780208,0.141657471656799,1.87529635429382,-9.22151565551758,9.41133116199083
5.311714778,2.01352572441101,1.68670797348022,-11.1179914474487,11.4240537225719
5.319557796,3.17814373970032,1.32055068016052,-11.8211545944214,12.311951416176
5.327553401,4.26076221466064,0.59308385848999,-11.5770645141602,12.3504763421541
5.335518489,4.60955619812012,-0.333314180374146,-10.5416631698608,11.5102462646664
5.343422542,4.17575407028198,-1.18605959415436,-8.88876342773438,9.89210668617107
5.35138763,3.94637155532837,-2.03007459640503,-5.87402057647705,7.36200849310497
5.359352718,4.15901851654053,-2.24789214134216,-3.55506134033203,5.91514287516018
5.36725677,4.19525671005249,-2.1754846572876,-3.45087242126465,5.85161796644134
5.375191341,3.97929167747498,-1.98031270503998,-5.33628177642822,6.94494808199488
5.383064876,3.33947515487671,-1.80720496177673,-7.48212146759033,8.39048423749699
5.390999446,2.49468088150024,-1.64233136177063,-10.0815563201904,10.5146784467976
5.398903499,1.84861433506012,-1.57168066501617,-11.855320930481,12.1010821597606
5.406899104,1.37722718715668,-1.71293354034424,-12.9916152954102,13.1762272302285
5.41489471,1.02664363384247,-2.02790546417236,-13.3289833068848,13.5213976244226
5.422798763,0.867910861968994,-2.48968601226807,-13.187292098999,13.4482890587736
5.430733333,0.897852420806885,-2.84915900230408,-12.6458692550659,12.9939160843135
5.438698421,0.914210557937622,-3.107093334198,-11.7565336227417,12.1945025628075
5.446571956,0.927374958992004,-3.3904447555542,-10.6773414611816,11.2410302300856
5.454506526,0.75564706325531,-3.644855260849,-9.86487483978272,10.5438004515129
5.462380061,0.359415650367737,-3.99056887626648,-9.14443397521973,9.9837113486473
5.470314632,0.109630465507507,-4.21778249740601,-8.7192907333374,9.68647195457951
5.47827972,-0.178182721138001,-4.24776744842529,-8.8301944732666,9.80038835014826
5.486305843,-0.298044919967651,-4.09242820739746,-9.26422119140625,10.1322551137603
5.494240413,-0.368515491485596,-3.89674615859985,-9.41229152679443,10.193707180285
5.502174983,-0.629642188549042,-3.61782121658325,-9.27469730377197,9.97522379284574
5.510201106,-0.559477865695953,-3.36063504219055,-9.13288116455078,9.74763569973813
5.518318782,-0.396456480026245,-3.05305361747742,-9.3750524520874,9.86761990609371
5.526222835,-0.574873208999634,-2.70927023887634,-9.78007221221924,10.1646660992828
5.534157405,-0.765155553817749,-2.51910424232483,-9.92490959167481,10.268163399954
5.542122493,-1.09668433666229,-2.56400775909424,-9.8176736831665,10.2060555001487
5.550148616,-1.53923988342285,-2.77935600280762,-9.53272819519043,10.0482329815964
5.558205257,-1.7287175655365,-2.93442845344543,-9.1630220413208,9.77549526620086
5.566170345,-1.70779514312744,-3.01270294189453,-8.64999771118164,9.31747839656402
5.574135433,-1.46809852123261,-2.95681405067444,-8.17591857910156,8.81723920569297
5.582070003,-1.39831006526947,-2.70881962776184,-8.00641059875488,8.56712235760855
5.590035091,-1.48113715648651,-2.29122447967529,-8.17343807220459,8.61676080744683
5.598152767,-1.38054049015045,-1.8854444026947,-8.63434410095215,8.94498131324179
5.606056819,-1.14584648609161,-1.36822855472565,-9.26738548278809,9.43766111037298
5.61399139,-0.835047006607056,-0.947482585906982,-9.87448787689209,9.95492529277489
5.621895442,-0.663923799991608,-0.692813396453857,-10.0152139663696,10.0610782725644
5.629952083,-0.70364636182785,-0.557397365570068,-10.0752210617065,10.1151317078876
5.642861018,-1.21546030044556,-0.598654866218567,-9.93188667297363,10.0238767089184
5.650795589,-2.04071640968323,-0.925289273262024,-9.02099895477295,9.29511193294512
5.658730159,-2.6042468547821,-1.44030690193176,-7.4303994178772,8.00421271341439
5.666695247,-2.74468946456909,-1.87260222434998,-5.84226894378662,6.72101672063764
5.6745993,-2.69493269920349,-2.09935998916626,-4.06775569915772,5.31193100909438
5.682594905,-2.89557766914368,-2.03856372833252,-2.69472980499268,4.44990795797311
5.690529476,-2.94292545318604,-1.19750022888184,-1.40482425689697,3.47395282264288
5.698403011,-2.40202569961548,0.84642505645752,0.364650726318359,2.57276757403712
5.706368099,-1.72625803947449,3.31885361671448,2.70215034484863,4.61479930594979
5.714302669,-1.0742484331131,6.57814979553223,6.53142833709717,9.33196766770773
5.722206722,-1.37695860862732,8.91410160064697,10.1274137496948,13.5617746484019
5.730141292,-0.981518507003784,10.395562171936,14.8939476013184,18.1895785163097
5.738014827,0.0971926003694534,10.1005258560181,19.7475967407227,22.1810199495843
5.745949397,1.47847545146942,7.49427795410156,28.0397987365723,29.061665556217
5.753945003,2.36583423614502,3.0231921672821,40.6824569702148,40.8631761815771
5.761910091,2.8895001411438,-1.07117974758148,51.9855651855469,52.0768242578025
5.769814143,1.75971710681915,-4.87136888504028,57.9473075866699,58.1783232454692
5.777718196,-2.39019846916199,-6.68678569793701,57.882194519043,58.3161606592242
5.785652767,-7.16972780227661,-7.50342655181885,54.7846717834473,55.7590052744606
5.793526302,-8.39453887939453,-7.28050804138184,48.0550079345703,49.3229953260131
5.801430354,-8.06146049499512,-5.29335069656372,36.9979133605957,38.2341771187419
5.809395442,-6.8882532119751,-1.85908317565918,25.4068737030029,26.3896467184888
5.817330013,-5.7923059463501,1.60826051235199,16.9031791687012,17.9403114817142
5.825264583,-5.15758609771729,5.24345970153809,10.527512550354,12.8422382976988
5.833229671,-4.51988172531128,7.42378187179565,7.30002689361572,11.3504299803275
5.841133724,-3.6265172958374,8.58558177947998,4.79897022247314,10.4830318794388
5.849037776,-2.21337461471558,8.31167697906494,3.01962280273438,9.11598174966245
5.856941829,-0.512247443199158,7.01922750473023,0.91331958770752,7.0969081208309
5.864906917,0.80029034614563,5.47754812240601,-2.11759948730469,5.92690692183035
5.87281097,1.13798820972443,4.22903537750244,-5.16499137878418,6.77177180157113
5.880776058,1.39074897766113,2.87418937683105,-8.57828330993652,9.15325580535634
5.888741145,1.56393086910248,1.41723728179932,-10.1374664306641,10.3548378504491
5.896645198,2.01646423339844,-0.446706295013428,-10.9843120574951,11.1767967636086
5.904610286,2.73073482513428,-1.99867010116577,-11.1652688980103,11.6668258075352
5.912544856,3.5654730796814,-3.36310839653015,-10.4623746871948,11.553544065091
5.920509944,3.6332311630249,-4.40121078491211,-8.1851053237915,9.97832522113616
5.928475032,3.18417167663574,-5.17380142211914,-5.72931241989136,8.35058029280197
5.936348567,2.5449800491333,-5.81124305725098,-3.64911460876465,7.31870936359914
5.944283138,2.32769465446472,-5.87667036056519,-2.70690727233887,6.87610092364925
5.95218719,2.37028098106384,-5.40529155731201,-2.74478054046631,6.50916499745275
5.960152278,2.08707094192505,-4.87003564834595,-4.2045693397522,6.76398666952948
5.968056331,1.37783312797546,-4.47154331207275,-6.90782928466797,8.34333441415395
5.975960384,0.726840496063232,-4.2821478843689,-10.0792636871338,10.9752742145742
5.983894954,0.111698687076569,-4.25544929504395,-12.6573057174683,13.3539774346387
5.991799007,-0.695829272270203,-4.3333854675293,-14.4530534744263,15.1047397435695
5.999733577,-1.19409775733948,-4.56452655792236,-14.4817390441895,15.2309401514175
6.00763763,-1.55889868736267,-4.96983909606934,-13.2507658004761,14.2377055755956
6.015541683,-1.67154037952423,-5.29655933380127,-11.9850168228149,13.2093987849567
6.023476253,-1.62470841407776,-5.71002960205078,-10.8074474334717,12.3306543019551
6.031380306,-1.68075621128082,-6.26224613189697,-10.2760028839111,12.1505927151052
6.039253841,-2.15702056884766,-6.67219591140747,-10.0941743850708,12.290780794191
6.047218929,-2.91303730010986,-6.90817356109619,-10.2227220535278,12.6772510602947
6.055122981,-3.38278818130493,-6.89428043365479,-10.2039937973022,12.7708984802493
6.063057552,-3.03081846237183,-6.6905574798584,-10.2372913360596,12.5996648305621
6.070961604,-2.26922059059143,-6.29504203796387,-9.7534761428833,11.8282379591506
6.07895721,-1.64383399486542,-5.59078788757324,-9.32700157165527,10.9978205897428
6.086922298,-1.27730548381805,-4.97867918014526,-9.44857120513916,10.7561263239323
6.094856868,-1.25126433372498,-4.73410892486572,-9.66189765930176,10.8318842370183
6.102791438,-1.33525919914246,-4.78531980514526,-9.65243911743164,10.8559561385506
6.110726009,-1.53920996189117,-4.93229675292969,-9.41444873809815,10.7391137254442
6.118721614,-1.7837198972702,-5.14466190338135,-8.99314785003662,10.5131304103316
6.126747737,-2.05150532722473,-5.32690143585205,-8.43191432952881,10.182422711488
6.134743343,-2.13162302970886,-5.42057609558106,-7.94701290130615,9.85299325090078
6.142647395,-2.09337043762207,-5.41154098510742,-7.58711624145508,9.55150817850034
6.150643001,-2.05957293510437,-5.29004716873169,-7.54567623138428,9.44265161441945
6.158699642,-1.94870495796204,-5.14171504974365,-7.64868259429932,9.42003344443551
6.166695247,-1.79902672767639,-4.99737882614136,-8.09781837463379,9.68426325165816
6.1745993,-1.61321449279785,-4.7762508392334,-8.72894954681397,10.0801583950786
6.182564388,-1.08012163639069,-4.37202978134155,-9.2393970489502,10.2785098621583
6.190498958,-0.536595940589905,-3.89596152305603,-9.61974048614502,10.3925867046356
6.198555599,0.107937216758728,-3.35983896255493,-10.1288146972656,10.672068940398
6.206429134,0.390404045581818,-2.96500420570374,-10.363109588623,10.7859958095884
6.214363704,0.0557792186737061,-2.86326169967651,-10.4182863235474,10.8047243741562
6.222298274,-0.78117710351944,-3.01322984695435,-10.3074932098389,10.7672748663956
6.230202327,-1.66282415390015,-3.18211650848389,-9.81289386749268,10.4491021477941
6.238258968,-2.54950189590454,-3.46126365661621,-9.08970355987549,10.0549995934483
6.24616302,-3.1275486946106,-3.78929662704468,-8.61479091644287,9.91740653088897
6.254036556,-3.58654689788818,-4.07781505584717,-7.67643356323242,9.40316577175828
6.261971126,-4.14489650726318,-4.58870410919189,-6.4522271156311,8.93686786348116
6.269875179,-5.01797866821289,-5.11562347412109,-5.55301904678345,9.06563478072871
6.277779231,-6.02118921279907,-5.5587797164917,-4.55587673187256,9.37607403281487
6.285713802,-6.37908172607422,-5.62630176544189,-4.1540904045105,9.46596124609618
6.293617854,-5.92529487609863,-5.30499601364136,-4.04072189331055,8.92073626403957
6.301552425,-4.27459096908569,-4.87184238433838,-3.61272764205933,7.4201601860421
6.309456477,-2.2725100517273,-4.18140029907227,-1.69755697250366,5.05273293091759
6.31736053,-0.731372714042664,-3.0354208946228,1.51245212554932,3.46932233821498
6.325295101,-0.527747452259064,-1.50371968746185,5.01666641235352,5.26370897416092
6.333168636,-1.26726508140564,0.587115287780762,9.50709438323975,9.60913673331401
6.341133724,-1.51131272315979,2.52342486381531,11.2492151260376,11.6274064237206
6.349037776,-1.16274309158325,5.47789478302002,9.8902473449707,11.3655750094556
6.357033382,-0.255331754684448,9.66536903381348,7.03025341033936,11.954455900556
6.36499847,0.431378781795502,16.0982894897461,5.57426166534424,17.041520039679
6.372902522,0.504804968833923,21.8032684326172,7.45887088775635,23.0493404964554
6.380837093,0.457569479942322,23.4867706298828,12.8976697921753,26.799023312757
6.388802181,1.05755293369293,20.0510082244873,23.6950931549072,31.0583127140827
6.396706233,1.67782139778137,14.7531232833862,33.3865356445313,36.539437510739
6.404640804,1.39792048931122,8.34037780761719,42.9254112243652,43.7505087107463
6.412514339,0.210574150085449,3.51411843299866,47.3730888366699,47.5037147574887
6.420448909,-0.846224546432495,-0.254848718643189,49.801872253418,49.8097131471176
6.428322444,-0.378675758838654,-1.21692979335785,49.948974609375,49.96523169145
6.43631805,1.17538714408875,-0.00567054748535156,46.2933044433594,46.3082239281443
6.444283138,2.58884406089783,2.75757598876953,37.1411514282227,37.3332488315663
6.45218719,2.76247191429138,5.18343210220337,27.7380905151367,28.3531459429341
6.460121761,2.02782392501831,7.59780502319336,17.5063495635986,19.1914300166571
6.467995296,1.14088296890259,9.06891059875488,10.5888109207153,13.9881975290457
6.475990901,0.279190897941589,9.73861789703369,5.23665809631348,11.0607962696907
6.483955989,-0.193723320960999,9.43677425384522,1.95314025878906,9.63872366621342
6.491860042,0.242476105690002,8.93382740020752,0.502438545227051,8.95122958985296
6.499794612,0.88019472360611,8.04271411895752,0.279396057128906,8.09555775147592
6.507698665,1.44743752479553,6.63615798950195,0.768784523010254,6.83554664183026
6.51569427,1.7283171415329,4.31200838088989,2.15713500976563,5.12188713941821
6.523659358,1.30814456939697,1.87208342552185,3.77313423156738,4.41049662690972
6.531563411,1.02971422672272,-0.0829493999481201,3.94152545928955,4.07465519251563
6.539497981,0.48387998342514,-2.04990816116333,2.72897815704346,3.44725761862728
6.547402034,0.109916269779205,-3.44503021240234,1.05343246459961,3.60416907319836
6.555275569,0.315161228179932,-4.64391326904297,-0.898176193237305,4.74046174167027
6.56321014,0.720249533653259,-5.32730722427368,-2.37586545944214,5.87738873428468
6.571083675,1.16219186782837,-5.88544654846191,-3.82047080993652,7.11232509254363
6.579048763,1.88362836837769,-6.21497249603272,-4.40096044540405,7.84489590744271
6.586952815,2.21548652648926,-6.39749336242676,-4.66296911239624,8.2206801917184
6.594917903,2.50608897209168,-6.49839925765991,-4.46913909912109,8.27543830472364
6.602821956,2.67005729675293,-6.30121946334839,-4.64347171783447,8.27021174381604
6.610664974,2.64089560508728,-5.70744609832764,-5.85159969329834,8.59013908693532
6.618599544,2.30516934394836,-4.96764850616455,-7.63181352615356,9.39339741962719
6.626503597,1.47465944290161,-4.18403387069702,-9.83247375488281,10.7869504515474
6.634438167,0.887807250022888,-3.69437503814697,-11.4477586746216,12.0618318388233
6.642372737,0.536402642726898,-3.21907782554626,-13.1428813934326,13.5419910339612
6.650246272,0.208892226219177,-3.03188753128052,-14.0189647674561,14.3445930969018
6.658180843,-0.0277815461158752,-3.12613606452942,-14.2191095352173,14.5587284638035
6.666084895,-0.222705483436584,-3.39350438117981,-13.8785362243652,14.2891300451937
6.673958431,-0.373314648866653,-3.7884361743927,-13.0060482025146,13.5517121545818
6.681893001,-0.271963000297546,-4.22103261947632,-11.4310636520386,12.1885313498047
6.689797054,-0.269035995006561,-4.57835912704468,-10.1081857681274,11.0999627110084
6.697762142,-0.592395782470703,-4.95638704299927,-9.00643444061279,10.2972115942209
6.705635677,-0.874242067337036,-5.16634750366211,-8.46085548400879,9.95196067326329
6.713631282,-1.30742168426514,-5.37427425384522,-8.29005336761475,9.96579951905169
6.721626888,-1.57359266281128,-5.52073097229004,-8.51172542572022,10.2666515505158
6.729744563,-1.47518348693848,-5.34093856811523,-9.24931240081787,10.7820021793932
6.737679134,-1.47534024715424,-4.88429594039917,-9.86032485961914,11.1022061778502
6.745552669,-1.63855290412903,-4.61257171630859,-9.86322402954102,11.0110790440644
6.753517757,-1.84965348243713,-4.61063432693481,-9.6109504699707,10.8189433790011
6.761513362,-2.05989670753479,-4.84914779663086,-9.14771366119385,10.5564233538863
6.769508968,-2.0850510597229,-5.04938411712647,-8.66520881652832,10.2435131531121
6.77741302,-2.1676824092865,-5.2772159576416,-8.06748771667481,9.88090144419102
6.785317073,-2.3048152923584,-5.37992238998413,-7.70321846008301,9.67446707048535
6.793312679,-2.35720777511597,-5.47448968887329,-7.57812643051148,9.64128964638361
6.801277767,-2.41917204856873,-5.48463916778564,-7.72213649749756,9.77573794080879
6.809181819,-2.54127359390259,-5.38856029510498,-8.27112865447998,10.1934401823922
6.81711639,-2.62105345726013,-5.09454107284546,-8.93836879730225,10.6169066457849
6.825020442,-2.5832576751709,-4.79341268539429,-9.43231296539307,10.891214499125
6.832955013,-2.44040560722351,-4.4627046585083,-9.95796489715576,11.1817877501688
6.840889583,-1.92997300624847,-4.11512088775635,-10.5065765380859,11.4475834251756
6.848732601,-1.26878547668457,-3.79347896575928,-10.7745876312256,11.4931300293899
6.856667171,-0.622078895568848,-3.36951661109924,-10.9851379394531,11.5071230067988
6.864540706,-0.268320530653,-3.06052184104919,-11.0618324279785,11.4805455668007
6.872536311,0.0727145969867706,-2.86893963813782,-10.8778028488159,11.2500087501122
6.880501399,0.278365671634674,-2.79765486717224,-10.2685775756836,10.6465039158772
6.888466487,0.482833087444305,-2.93188238143921,-9.13296508789063,9.60417166576867
6.896401058,0.60999870300293,-3.08402276039124,-8.21966552734375,8.80035204896257
6.904274593,0.850662767887116,-3.16535472869873,-7.44317102432251,8.13288956032719
6.912270198,1.27282345294952,-3.10785603523254,-6.62331581115723,7.42611345270425
6.920235286,1.68234491348267,-2.98319602012634,-6.07279872894287,6.97198876251739
6.928139339,2.30538320541382,-2.52449226379395,-5.6161584854126,6.57488319645539
6.936134944,2.66917681694031,-1.65816128253937,-5.42629957199097,6.27046495596567
6.944038997,2.92403316497803,-0.0914347171783447,-4.76027202606201,5.58735357924532
6.951973567,3.50116395950317,1.54223656654358,-3.07055044174194,4.90560115722729
6.95987762,3.39096713066101,2.83253216743469,-1.28806114196777,4.60228183255035
6.967751155,1.88631248474121,4.54349327087402,0.890356063842773,4.99942394811539
6.975685726,-0.625452816486359,6.92332935333252,2.77495288848877,7.48492111472783
6.983528743,-4.46040010452271,11.6335353851318,4.5755500793457,13.2729037206687
6.991524349,-7.74459934234619,16.035062789917,6.61894130706787,18.9976956938587
6.999458919,-10.481746673584,18.3343124389648,14.2952795028687,25.5023340501199
7.007332454,-7.97910118103027,16.8337020874023,24.694408416748,30.9330468702598
7.015297542,-3.17326307296753,14.0627517700195,36.0540428161621,38.8294294223479
7.023293147,2.8905177116394,10.9355354309082,51.2903137207031,52.5227313586232
7.031258235,6.3020224571228,8.88960456848145,59.1644096374512,60.1595206445511
7.039192806,5.83814668655396,6.96314907073975,60.018856048584,60.7028210472603
7.047096858,2.95383358001709,5.71684217453003,54.7014503479004,55.0786354899133
7.055031429,1.01097583770752,4.7965841293335,46.6432189941406,46.9000977567165
7.062935481,-0.566996693611145,4.91573047637939,35.4990844726563,35.8423058656074
7.070870052,-1.41750645637512,6.00865364074707,25.1884155273438,25.9339453208813
7.078804622,-2.12769150733948,7.93229007720947,14.0664491653442,16.2884403532264
7.086678157,-3.00398063659668,9.53129005432129,7.05348682403564,12.2319690214412
7.094612727,-3.72532153129578,10.3896722793579,1.61463260650635,11.154835231324
7.102486263,-4.25273036956787,9.89071464538574,-0.605361938476563,10.7832469539211
7.110420833,-4.11449718475342,8.15612030029297,-1.06698179244995,9.19727326883433
7.118355403,-3.3460693359375,6.22941446304321,-0.874937534332275,7.12511755989027
7.126259456,-2.1311526298523,4.86877202987671,-0.90878438949585,5.39190519920626
7.134224544,-0.114810779690742,3.75413846969605,-1.67541885375977,4.11263486104938
7.142128597,1.43796372413635,3.13401889801025,-2.91569662094116,4.51565066301471
7.150002132,2.28843665122986,2.15185403823853,-5.39058017730713,6.23905223223465
7.15796722,2.64472532272339,0.806973457336426,-7.25670528411865,7.76566479923357
7.165840755,2.73788380622864,-1.20449376106262,-8.32616806030273,8.84714007605018
7.173805843,2.46747231483459,-3.39919757843018,-7.9326958656311,8.97611427613762
7.181679378,1.80395340919495,-4.88201189041138,-7.62500476837158,9.2319545990193
7.189674983,0.793836236000061,-6.16198635101318,-7.88901805877686,10.0417557076124
7.197640071,-0.0386594533920288,-6.9128155708313,-8.05119228363037,10.6117958356564
7.205544124,-1.04509747028351,-7.45081424713135,-8.11539745330811,11.0664600253563
7.213478694,-1.93174421787262,-7.60625553131104,-8.40964317321777,11.5025587254199
7.221382747,-2.64916157722473,-7.55735492706299,-9.01874446868897,12.0610705307346
7.2292868,-3.12382507324219,-7.35946321487427,-9.9026403427124,12.7272254500507
7.237251888,-3.44471740722656,-7.23586082458496,-10.7571573257446,13.414178827615
7.245186458,-3.37226510047913,-7.11543655395508,-11.7374992370605,14.1340191595054
7.253151546,-3.11723399162293,-6.97925186157227,-12.2414197921753,14.4318904802541
7.261025081,-2.57667326927185,-6.87534999847412,-12.0222053527832,14.0869835054417
7.268959651,-2.1078953742981,-6.76891040802002,-11.4017944335938,13.4261791782591
7.276894222,-1.51332640647888,-6.68366146087647,-10.4418544769287,12.4897482862349
7.284798274,-0.971683084964752,-6.63489723205566,-9.60737037658691,11.7161254197139
7.292732845,-0.791593909263611,-6.66631317138672,-9.2708740234375,11.4461983808877
7.300636897,-0.85379683971405,-6.77352857589722,-9.22398185729981,11.4756916879026
7.30854095,-1.21911537647247,-6.85637283325195,-9.45554351806641,11.7432275781301
7.316536556,-1.69906485080719,-6.87231731414795,-9.7907886505127,12.082015934131
7.324410091,-2.0546452999115,-6.81698369979858,-9.78598690032959,12.1019987475289
7.332375179,-2.21517372131348,-6.66809463500977,-9.35049533843994,11.6962491317187
7.340248714,-2.12025427818298,-6.35779190063477,-8.85801219940186,11.1077169652761
7.348244319,-2.0566680431366,-6.13128042221069,-8.46005725860596,10.6487112776305
7.356209407,-1.99044322967529,-5.97072696685791,-8.14887046813965,10.2963845436077
7.364082942,-1.90155935287476,-5.81934785842896,-8.09228134155273,10.1472042839764
7.372017513,-1.73000884056091,-5.6295747756958,-8.01118087768555,9.94304087281974
7.379891048,-1.5371036529541,-5.36910343170166,-8.12429332733154,9.85870688116648
7.387978206,-1.4645870923996,-5.01214504241943,-8.36368751525879,9.85991288655072
7.395943294,-1.37998926639557,-4.66348361968994,-8.72533226013184,9.98918779962519
7.403877864,-1.18379831314087,-4.34750890731812,-9.33599662780762,10.366438403803
7.411842952,-0.93774425983429,-3.95705604553223,-10.0854959487915,10.8745062130391
7.419777522,-0.792598426342011,-3.62327861785889,-10.6402425765991,11.268146355854
7.427895198,-0.473495781421661,-3.30357122421265,-10.9677743911743,11.4642861175116
7.435799251,-0.144164949655533,-3.19357872009277,-10.8715181350708,11.331797524458
7.443703304,0.133261829614639,-3.17656707763672,-10.6122140884399,11.0782410595203
7.451668392,0.243279844522476,-3.18324899673462,-10.3366241455078,10.8184129142614
7.459541927,0.353367477655411,-3.15880966186523,-10.0493478775024,10.5400350956351
7.467598567,0.443512171506882,-3.07403254508972,-9.76405048370361,10.2461241932185
7.475563655,0.450794488191605,-2.94391798973084,-9.57465267181397,10.0271552589316
7.483498226,0.409348070621491,-2.85676193237305,-9.38474082946777,9.81845278124088
7.491463313,0.41189244389534,-2.689293384552,-9.4628438949585,9.8461854986531
7.499397884,0.550369024276733,-2.38810467720032,-9.36861801147461,9.68385013602936
7.507515559,0.6978999376297,-1.94821834564209,-8.61361694335938,8.85872541013478
7.515389095,0.890204727649689,-1.51573920249939,-7.5790696144104,7.78024588346682
7.523293147,1.23275601863861,-1.18253266811371,-6.56749057769775,6.78601528150318
7.531227718,1.60621273517609,-0.862804055213928,-4.46851968765259,4.82618051747697
7.53913177,1.98417639732361,-0.675152897834778,-1.4632043838501,2.55612098306573
7.547096858,1.65361964702606,-0.630335927009583,2.42101955413818,2.99885261382234
7.555031429,1.04785931110382,-0.302842617034912,5.28170299530029,5.39315393041248
7.562904964,0.678493499755859,0.564467668533325,6.9702091217041,7.02586595220244
7.570839534,0.0618769600987434,2.85025978088379,7.79526710510254,8.30024088907114
7.578774104,-0.401598125696182,6.25966691970825,7.73251056671143,9.95672790953717
7.586739192,-1.16289246082306,10.0093288421631,13.1259679794312,16.5478100709142
7.594673763,-0.290635734796524,11.0374746322632,21.8873424530029,24.5146094205724
7.602577815,1.95402467250824,9.04268836975098,34.353157043457,35.5770687975502
7.610542903,3.51675367355347,5.67646837234497,43.9929847717285,44.4968825729199
7.618416438,3.51601910591126,3.07999229431152,49.2880935668945,49.5092406561149
7.626412044,2.28451752662659,0.983979463577271,51.6931304931641,51.752941714433
7.634377132,0.581511080265045,0.136317372322083,49.6505584716797,49.6541508246003
7.642250667,-1.04420375823975,0.401136636734009,43.8904609680176,43.9047131419296
7.650185237,-1.40597033500671,1.78469371795654,37.4647598266602,37.5335864675781
7.658058772,-1.27096974849701,4.3198709487915,28.7595367431641,29.1099227549166
7.665993343,-1.62119567394257,6.78852605819702,20.0320663452148,21.2131101801485
7.673958431,-2.52290105819702,8.20765113830566,13.9790163040161,16.4055924545726
7.681801448,-3.10446739196777,8.82984828948975,8.54899597167969,12.6763271781298
7.689736018,-4.14724636077881,8.17876434326172,5.94211769104004,10.9270582140745
7.697640071,-4.74138784408569,6.86050939559937,4.3802604675293,9.41987418273465
7.705574642,-4.57104110717773,5.76600503921509,3.9788236618042,8.36494283587733
7.713509212,-3.55770564079285,4.84454870223999,3.30686283111572,6.8601941181514
7.7214743,-2.32744026184082,4.15019416809082,2.17239093780518,5.23071430991512
7.729378352,-1.13578677177429,3.71051263809204,0.813687324523926,3.96484585961032
7.737282405,0.148845851421356,3.39973068237305,-1.03136444091797,3.55584538614154
7.745186458,1.22048354148865,3.20505285263062,-2.55630779266357,4.27745875421761
7.753151546,2.14262223243713,2.69057488441467,-3.62787914276123,4.99915295965815
7.761025081,2.2507152557373,1.68751323223114,-4.0443115234375,4.92644656623546
7.768959651,1.68605256080627,-0.072392463684082,-4.26149034500122,4.58348272246534
7.776863704,0.929969906806946,-1.63590955734253,-4.19533967971802,4.59803426863998
7.784798274,-0.102688103914261,-3.19769525527954,-4.17054557800293,5.25635331865378
7.792732845,-1.05160713195801,-4.34272909164429,-4.56899499893189,6.39068766438035
7.80060638,-1.60542368888855,-4.91460418701172,-5.41566181182861,7.48733012467972
7.80854095,-1.93015778064728,-4.94677352905273,-6.76009559631348,8.59621834746111
7.816414485,-1.77605354785919,-4.59388160705566,-7.73437786102295,9.16944465720741
7.824410091,-1.29008829593658,-4.08405590057373,-8.93540954589844,9.90885382691947
7.832375179,-1.00524091720581,-3.73933982849121,-10.1307497024536,10.8455180230512
7.840248714,-0.653140187263489,-3.54528450965881,-11.6460762023926,12.1912560989662
7.848183284,-0.15129129588604,-3.3506293296814,-12.9566869735718,13.3837716392748
7.856056819,0.108490362763405,-3.21501111984253,-13.3600769042969,13.7418965775562
7.864021907,0.382569581270218,-3.06761932373047,-12.6825084686279,13.0538373230501
7.871986995,0.522180676460266,-3.14023733139038,-11.9296979904175,12.3471234422799
7.879830013,0.568131923675537,-3.27564597129822,-11.3653898239136,11.8416517539362
7.887764583,0.488014280796051,-3.42885541915894,-11.0090208053589,11.5409595145543
7.895851741,0.131821751594543,-3.50051355361938,-10.9589185714722,11.5051670291841
7.903816829,-0.37067061662674,-3.51791334152222,-11.2016792297363,11.7469454987412
7.911751399,-0.671847105026245,-3.50500822067261,-11.6758460998535,12.2090885534908
7.919747005,-0.846480965614319,-3.35965180397034,-12.338939666748,12.8161313339368
7.927651058,-0.89370596408844,-3.1296215057373,-12.7109823226929,13.1210637041069
7.93555511,-0.72953188419342,-2.6727979183197,-12.8248176574707,13.120671226336
7.943489681,-0.551813006401062,-2.3009786605835,-12.8430166244507,13.0591759466825
7.951424251,-0.409777402877808,-2.1633415222168,-12.7275266647339,12.9165745870633
7.959297786,-0.349918186664581,-2.17254042625427,-12.3002948760986,12.4955843672894
7.967232356,-0.330447018146515,-2.24049282073975,-11.8436422348022,12.0582280911243
7.975105892,-0.359638899564743,-2.33447790145874,-11.1585741043091,11.4058276004785
7.983070979,-0.235023558139801,-2.47465777397156,-10.2907724380493,10.5867447566697
7.99112762,-0.417262345552444,-2.75924825668335,-9.25893783569336,9.67034066888339
7.999153743,-0.755341410636902,-3.12956142425537,-8.31918144226074,8.92039658446113
8.007210384,-1.10318946838379,-3.438889503479,-7.68520736694336,8.49148987476353
8.015083919,-1.45378017425537,-3.69987940788269,-7.29164218902588,8.30485582299383
8.023079524,-1.643181681633,-3.76973819732666,-7.22866201400757,8.31652130568989
8.031044612,-1.67209923267365,-3.67524218559265,-7.56803750991821,8.57779183229558
8.038948665,-1.51214075088501,-3.38994669914246,-8.28983688354492,9.08293475861716
8.046913753,-1.27874827384949,-3.00464391708374,-8.91989231109619,9.49881892962985
8.054878841,-1.01094186306,-2.55182337760925,-9.51333236694336,9.90137862749084
8.062843929,-0.907645583152771,-2.22671294212341,-9.75606346130371,10.0480269352855
8.070931087,-0.952619910240173,-1.95532739162445,-9.66292476654053,9.90469105755678
8.07883514,-0.81649386882782,-1.7162184715271,-9.04241275787354,9.23998358026671
8.08676971,-0.22382852435112,-1.54940736293793,-8.04029273986816,8.19128010309843
8.094643245,0.518654108047485,-1.30732011795044,-6.57999229431152,6.72862441869001
8.10251678,0.85937762260437,-1.1878981590271,-5.04880428314209,5.25738115642446
8.110481868,1.1689019203186,-1.07863807678223,-2.76175928115845,3.18702151343128
8.118446956,1.74654388427734,-0.790802538394928,-0.80960750579834,2.08116518034573
8.126381526,2.1026508808136,-0.314423441886902,0.994023323059082,2.3469310160675
8.134285579,2.4222891330719,1.1572892665863,3.70719528198242,4.57712791491638
8.142281184,2.54170823097229,3.31891536712647,6.3891716003418,7.63524679916469
8.150215755,3.08862400054932,6.67638301849365,9.80263710021973,12.2558305530471
8.158058772,4.18739891052246,9.84680461883545,14.994387626648,18.4207907304637
8.16602386,5.3540530204773,12.3426809310913,24.4629554748535,27.9185215739923
8.173927913,6.85669565200806,11.757287979126,36.3459396362305,38.810764279113
8.181862483,8.43957328796387,8.52746963500977,46.8477249145508,48.3596263977334
8.189797054,9.03427028656006,3.4773097038269,55.4370460510254,56.2758900173996
8.197670589,6.64516353607178,0.471185326576233,56.5693969726563,56.9603097593674
8.205605159,1.77622842788696,-0.258076071739197,50.9636688232422,50.9952657666567
8.213570247,-1.72892618179321,0.681891441345215,43.4556388854981,43.4953642659385
8.221565852,-4.35621738433838,1.9121345281601,34.7529830932617,35.0770968330324
8.22953094,-6.20039176940918,2.92600893974304,26.2500438690186,27.1306319413133
8.237465511,-7.22902154922485,3.93650960922241,20.1145935058594,21.7336543721625
8.245461116,-8.17203044891357,4.7568998336792,15.0067405700684,17.7373177290977
8.253334651,-8.31717300415039,5.13479328155518,11.7789812088013,15.3063995486387
8.261238704,-7.82656717300415,5.25180339813232,8.80998420715332,12.9016438633405
8.269173274,-6.5009651184082,5.29133033752441,5.71983623504639,10.1477707289491
8.277077327,-4.56418800354004,5.19438648223877,2.98645114898682,7.5320882578345
8.285011897,-1.76738107204437,5.03491115570068,0.132765769958496,5.33775167549902
8.292885433,0.393761187791824,4.97170925140381,-2.20865631103516,5.45445720982215
8.300820003,2.45062685012817,4.92388248443604,-5.06647205352783,7.47792282310293
8.308754573,3.62755179405212,4.53761720657349,-7.40873336791992,9.41479856655747
8.316719661,4.30983686447144,3.54589128494263,-9.38952445983887,10.9229670138155
8.324654231,4.35988903045654,1.9463038444519,-10.3339443206787,11.3836345793297
8.332558284,3.49955177307129,0.176726579666138,-10.3876533508301,10.9627294518007
8.340492854,1.79504144191742,-2.17773723602295,-8.74726295471191,9.19126337595857
8.348427425,0.233026266098022,-4.21883344650269,-6.36258316040039,7.63775630424485
8.35630096,-0.838807225227356,-6.20019054412842,-4.18574810028076,7.52771197002098
8.36423553,-1.42726588249207,-7.08538007736206,-3.70083522796631,8.12009114016348
8.372109065,-1.87533318996429,-7.16196727752686,-4.43153762817383,8.62839357051286
8.380104671,-2.02237987518311,-6.57687711715698,-5.91661357879639,9.07478094581498
8.388069759,-1.77699625492096,-5.94317865371704,-7.75070190429688,9.92735957892491
8.395943294,-1.51398873329163,-5.3863697052002,-10.4462280273438,11.8502666841255
8.403908382,-1.36321866512299,-5.17174863815308,-12.6100645065308,13.6974112869566
8.411812434,-0.95123416185379,-4.97536563873291,-14.1758193969727,15.0536694943574
8.419747005,-0.634322881698608,-4.85067796707153,-14.8406944274902,15.6261848622311
8.42774261,-0.411336839199066,-4.72615909576416,-14.8846645355225,15.6223882978499
8.435646663,-0.510910451412201,-4.69384098052979,-14.4817934036255,15.2320554366492
8.443642268,-0.637623846530914,-4.82381772994995,-14.0541305541992,14.8726045901826
8.451546321,-0.716454744338989,-4.97148132324219,-13.446738243103,14.3542224911892
8.459541927,-1.08556604385376,-5.12071371078491,-12.8952465057373,13.9171672759624
8.467476497,-1.67698383331299,-5.23605012893677,-12.3686847686768,13.5356144536119
8.475350032,-2.14282441139221,-5.27125358581543,-12.021824836731,13.3004542489748
8.483284602,-2.63403296470642,-5.3488039970398,-11.7543325424194,13.1799911750991
8.491158138,-2.83491134643555,-5.2598671913147,-11.2696523666382,12.7557042015442
8.499092708,-2.84857845306397,-4.99696922302246,-10.7961320877075,12.2327661906178
8.507027278,-2.78068780899048,-4.47765016555786,-10.6384057998657,11.8725420049291
8.514931331,-2.53167486190796,-3.93762707710266,-10.3978939056396,11.403090908946
8.523018489,-2.22588777542114,-3.31561040878296,-9.83312606811523,10.6131153316567
8.531014095,-1.92457580566406,-2.82258605957031,-9.02263832092285,9.64774514410563
8.5390097,-1.83148503303528,-2.61643362045288,-8.34957408905029,8.93954415979967
8.547005306,-1.73325610160828,-2.75903820991516,-7.65579652786255,8.32031784450368
8.554848323,-1.67950046062469,-3.06854939460754,-7.34897327423096,8.13904941438162
8.562813411,-1.91144442558289,-3.43060255050659,-7.37056589126587,8.35152053276085
8.570717464,-2.23798179626465,-3.62092781066895,-7.69618082046509,8.7949349032146
8.578621517,-2.40503239631653,-3.65022373199463,-8.04989528656006,9.16019258779698
8.586586604,-2.29504489898682,-3.5286910533905,-8.52944278717041,9.51158692849185
8.594490657,-1.89880323410034,-3.23649120330811,-8.86025810241699,9.62208411272561
8.602425227,-1.44321048259735,-2.86707282066345,-9.00434303283691,9.55934916765073
8.610359798,-0.958839356899262,-2.57504653930664,-8.98406600952148,9.39487518040412
8.618416438,0.0747528076171875,-2.13778209686279,-9.04519367218018,9.29468820580669
8.626442561,0.636591851711273,-1.74015307426453,-8.87117290496826,9.06262051601966
8.634407649,0.787325084209442,-1.57071828842163,-8.26000595092773,8.44480521025614
8.64234222,0.90645569562912,-1.77013087272644,-7.15769910812378,7.42884121227219
8.650246272,0.634450554847717,-2.12676382064819,-6.22479915618897,6.60861380247443
8.658241878,0.207310914993286,-2.61347150802612,-5.54683542251587,6.1351930974678
8.666206966,-0.21848851442337,-2.8009889125824,-5.63904190063477,6.30016425789511
8.674141536,-0.322830319404602,-2.52780556678772,-6.02399063110352,6.54083202064025
8.682106624,-0.0912405848503113,-1.72731494903564,-6.57715845108032,6.80080547200868
8.690010677,0.206399530172348,-0.841128706932068,-7.2126522064209,7.26446488865277
8.697945247,0.326479732990265,0.515842914581299,-7.17640781402588,7.20232684913624
8.705879817,1.93167436122894,2.08664560317993,-5.17894887924194,5.90821184495789
8.713814388,3.30948805809021,3.41266560554504,-0.906885147094727,4.83957006478188
8.721748958,3.82648992538452,4.62200736999512,6.61851215362549,8.93362638602302
8.729653011,4.50514984130859,6.10696649551392,13.0953664779663,15.1353902514014
8.737648616,4.92666339874268,8.64142513275147,17.5551376342773,20.1774403215046
8.745613704,4.45922708511353,10.2018604278564,16.7267551422119,20.0934566457239
8.753548274,4.7380313873291,9.88679218292236,16.7543106079102,20.0226003566455
8.76154388,7.6012806892395,7.16757726669312,22.9089126586914,25.1787988433557
8.76947845,10.5261688232422,4.12300300598145,33.5025901794434,35.3584916620387
8.777382503,11.2414207458496,-0.455552101135254,46.4393501281738,47.7827406960838
8.785317073,8.7263708114624,-4.55155038833618,52.2132987976074,53.1328027663226
8.793221126,5.56783390045166,-7.16733598709106,52.2185096740723,53.0013606624967
8.801186214,3.10236358642578,-7.00085687637329,47.6611099243164,48.2723322001705
8.809151302,1.59490275382996,-5.506178855896,42.3960075378418,42.7818089324894
8.817085872,1.3529372215271,-2.97682523727417,35.4000625610352,35.5507574735598
8.825020442,2.43602705001831,-0.513809144496918,28.7239418029785,28.8316329805699
8.832893977,3.19064807891846,2.13774824142456,20.5475883483887,20.9034348766431
8.840859065,3.37804007530212,3.88682389259338,14.3134622573853,15.211632276517
8.848763118,2.55170583724976,5.16308975219727,8.37831878662109,10.1668541918996
8.856667171,1.60222029685974,5.50694513320923,3.28263092041016,6.60826908800474
8.864632259,0.808823168277741,5.30212020874023,-0.583237648010254,5.39507551193966
8.872536311,0.468206465244293,4.97352313995361,-4.26469993591309,6.56831905902322
8.880470882,0.159740149974823,4.26142311096191,-6.56954097747803,7.83224824050651
8.888374934,-0.640578925609589,2.63145112991333,-7.35150289535523,7.83450516813114
8.896309505,-1.28963041305542,0.815813779830933,-6.28038740158081,6.46312344300915
8.904244075,-2.32438135147095,-1.23686730861664,-4.46108961105347,5.18014574351337
8.912209163,-3.51169371604919,-3.09708380699158,-3.54725122451782,5.87425843087551
8.920143733,-4.34444236755371,-4.29650211334229,-3.78820610046387,7.18920130157322
8.928047786,-5.29881238937378,-5.12908220291138,-4.61328840255737,8.69869684879141
8.935982356,-5.97667264938355,-5.47390222549439,-5.2829532623291,9.67438973290385
8.943947444,-6.39722204208374,-5.42135190963745,-6.03801155090332,10.3331064967266
8.951820979,-5.83281230926514,-4.86223030090332,-6.97241878509522,10.3091030962391
8.95975555,-4.34368658065796,-3.7068018913269,-8.20716190338135,9.9982748452344
8.967659602,-3.34139561653137,-2.71851301193237,-9.58383369445801,10.5073834014587
8.975594173,-2.6814820766449,-2.16980218887329,-11.073902130127,11.5986937218739
8.983528743,-1.91111278533936,-1.85142779350281,-12.5227546691895,12.8023248458063
8.991371761,-1.23656284809113,-1.81854665279388,-13.0388784408569,13.2230310670856
8.999306331,-0.617752909660339,-1.83898210525513,-13.1387157440186,13.281164302988
9.007210384,-0.232192486524582,-1.85009980201721,-13.0949287414551,13.2270155882576
9.015205989,0.183846771717072,-1.72872030735016,-13.1001605987549,13.2150096954064
9.023140559,0.45259702205658,-1.53251779079437,-12.9391860961914,13.0374841006748
9.031014095,0.699342668056488,-1.30995631217957,-12.8925313949585,12.9777668139466
9.038948665,1.27367913722992,-0.840938806533814,-12.7882785797119,12.8790335682949
9.046791683,1.86218667030334,-0.365506410598755,-12.6155033111572,12.7574393169265
9.054695735,2.09229016304016,0.0164499282836914,-12.3268327713013,12.5031497990755
9.062630306,1.76484680175781,-0.00950229167938232,-12.0066986083984,12.1357153064885
9.070534358,0.994099676609039,-0.43855756521225,-11.3161973953247,11.3682404265125
9.078499446,0.209855437278748,-1.05369365215302,-10.5967674255371,10.6510933470732
9.086403499,-0.433848351240158,-1.75670719146729,-9.77840042114258,9.94441347413853
9.094429622,-1.05511558055878,-2.30815362930298,-8.73152828216553,9.09287788365482
9.10251678,-1.56795191764832,-2.70720100402832,-8.26547241210938,8.8377284800796
9.110420833,-2.09503054618835,-3.07217311859131,-7.99720859527588,8.81945270277083
9.118355403,-2.38078880310059,-3.27481842041016,-7.91459369659424,8.89007223782777
9.126228938,-2.39590620994568,-3.31243896484375,-7.95539140701294,8.94432059473757
9.134102474,-2.00410866737366,-3.08066606521606,-8.56209564208984,9.31753383360157
9.142037044,-1.17508685588837,-2.73598003387451,-9.07646942138672,9.55241922352708
9.149971614,0.0170081853866577,-2.25379180908203,-9.54176712036133,9.80434529054663
9.157906184,1.27692568302155,-1.78760457038879,-9.90289878845215,10.1436420340212
9.165840755,2.03297138214111,-1.38375544548035,-10.0764532089233,10.3722061802262
9.173775325,1.98193454742432,-1.26333343982697,-10.1798477172852,10.4476492799852
9.181709895,1.33538115024567,-1.44798517227173,-10.2466659545898,10.4342736719189
9.189583431,0.571624100208283,-1.70257771015167,-10.298526763916,10.4539551595623
9.197640071,-0.00187592208385468,-1.77043581008911,-10.4219808578491,10.5712880709071
9.205666194,-0.236950755119324,-1.67983412742615,-10.3754196166992,10.5131974479035
9.213692317,-0.116599962115288,-1.50447309017181,-10.2143974304199,10.3252578513462
9.221626888,0.199077144265175,-1.25883996486664,-9.59891891479492,9.68315827090118
9.229561458,0.432079195976257,-1.06295931339264,-8.83776378631592,8.91193826707977
9.237557063,0.0560364276170731,-0.964474558830261,-8.58398914337158,8.63818388721681
9.245522151,-0.512534499168396,-0.686462223529816,-7.93473052978516,7.98084397651501
9.253426204,-0.273841619491577,-0.112769246101379,-7.02413749694824,7.03037792095605
9.261391292,0.118896126747131,0.607954621315002,-5.05019187927246,5.08804315311921
9.269264827,0.221168756484985,1.62693321704865,-2.04694890975952,2.62408596481652
9.277199397,0.698685109615326,2.89755868911743,1.35342025756836,3.27349257412851
9.285072933,1.26893877983093,4.87106704711914,5.61487102508545,7.54084056540336
9.293068538,1.81322693824768,6.86791706085205,9.97144985198975,12.2427892587872
9.301033626,3.69923710823059,9.0483283996582,16.1621856689453,18.8884315814848
9.309029231,6.64795398712158,9.38093852996826,25.8120346069336,28.2570067499632
9.317024837,8.7628116607666,6.8732123374939,37.0653457641602,38.7022967361769
9.32492889,9.24284267425537,1.10945844650269,52.1302604675293,52.9549345685367
9.332832942,7.47846078872681,-3.91590881347656,60.2681007385254,60.8564350273086
9.340767513,2.43042826652527,-6.91064977645874,60.417781829834,60.8602696603376
9.348641048,-2.03918027877808,-6.3518762588501,54.662654876709,55.0682342770067
9.356575618,-4.66793966293335,-4.04559659957886,45.5864868164063,46.0030900354062
9.364418636,-5.31100130081177,-1.88766431808472,36.9113235473633,37.3391994747227
9.372414241,-5.36939907073975,0.882949471473694,26.5831680297852,27.1343853560354
9.380379329,-5.09812545776367,3.94246959686279,18.5896530151367,19.6750895532515
9.388283382,-5.17359113693237,6.0563178062439,14.3318328857422,16.3965381860688
9.39624847,-5.3320484161377,7.14952945709229,11.1136054992676,14.249868033186
9.404274593,-4.67089700698853,6.92268180847168,8.13704299926758,11.6598572479756
9.412178645,-4.0031270980835,6.50429630279541,5.24390029907227,9.26441510860662
9.420143733,-3.11807060241699,6.07296514511108,2.24735641479492,7.18706343303794
9.428017268,-2.29754948616028,5.32739019393921,0.211891174316406,5.80557643904446
9.435951839,-1.3921422958374,4.11398410797119,-2.13982200622559,4.84166950863297
9.443825374,-1.12024796009064,2.71393728256226,-3.9213604927063,4.89872219864797
9.451790462,-0.801815867424011,1.07236194610596,-6.25717639923096,6.39883781008723
9.45975555,-0.485226541757584,-0.262813568115234,-8.30117416381836,8.31949567380481
9.467659602,-0.682542383670807,-1.86230993270874,-9.58954811096191,9.79252242087941
9.47562469,-1.51813745498657,-3.50890016555786,-9.77068328857422,10.492062410685
9.483528743,-2.61965847015381,-4.80908870697022,-8.87956142425537,10.4324760138177
9.491432796,-3.7715311050415,-6.01243400573731,-7.6915864944458,10.465864147369
9.499367366,-4.04054927825928,-6.61579370498657,-6.77185344696045,10.2933358987304
9.507301936,-3.47406244277954,-6.8236780166626,-5.79265880584717,9.60138466953462
9.515236507,-2.47095632553101,-6.7470064163208,-5.65692853927612,9.14486529387024
9.523110042,-1.03218054771423,-6.25378227233887,-6.61328554153442,9.16028029302422
9.531105647,0.406869500875473,-5.6070728302002,-8.10445976257324,9.86342113858476
9.539101253,1.3801394701004,-5.05227661132813,-9.88583278656006,11.1874918457234
9.546974788,2.45059418678284,-4.22811985015869,-12.1903915405273,13.1334707997148
9.554909358,3.0896167755127,-3.61787366867065,-13.7806062698364,14.5787465464712
9.562782893,3.2383553981781,-3.21453022956848,-15.1481990814209,15.8204957473551
9.570717464,3.17691326141357,-3.17007803916931,-15.8603715896606,16.4831295452982
9.578682552,2.93497562408447,-3.3419508934021,-15.9952096939087,16.6020917609798
9.586556087,2.44212031364441,-3.80481386184692,-15.4914302825928,16.1376879493331
9.594490657,1.85942423343658,-4.35273265838623,-14.8649835586548,15.6003678249697
9.602455745,1.03889858722687,-4.99094915390015,-13.9238910675049,14.8277991013873
9.610420833,0.313767462968826,-5.51908922195435,-12.9853248596191,14.1130243948827
9.618385921,-0.534177780151367,-6.008225440979,-11.973578453064,13.4071137767274
9.626289974,-1.22696685791016,-6.23234939575195,-11.1710538864136,12.8506837014338
9.634285579,-1.57512807846069,-6.23656892776489,-10.6658735275269,12.4553875314868
9.642159114,-1.72435486316681,-6.02998399734497,-10.4013872146606,12.1459031237561
9.65015472,-1.76311945915222,-5.75689601898193,-10.3353061676025,11.9611452452804
9.658150325,-1.66471302509308,-5.39556360244751,-10.4871950149536,11.9106941580094
9.666054378,-1.27752292156219,-5.07546043395996,-10.7763414382935,11.9800625301578
9.674019466,-0.767829358577728,-4.78602457046509,-10.8045558929443,11.8420446358198
9.681984554,-0.481768608093262,-4.62012624740601,-10.4394769668579,11.4263006644876
9.689919124,-0.404609143733978,-4.59796333312988,-9.96377944946289,10.9809779295625
9.697884212,-0.434422820806503,-4.68239307403564,-9.54977989196777,10.6448026788685
9.7058493,-0.502315759658814,-4.74682378768921,-9.22317028045654,10.3851589884831
9.713936458,-0.583308577537537,-4.78252983093262,-8.98279857635498,10.1933071543908
9.721871028,-0.542722940444946,-4.66600942611694,-8.72374629974365,9.90807456860254
9.729805599,-0.324243128299713,-4.45618343353272,-8.59390830993652,9.68596739820742
9.737740169,-0.0133823156356812,-4.1755223274231,-8.77881717681885,9.72125489930133
9.745735774,0.428366422653198,-3.79394197463989,-9.00832366943359,9.78403745047354
9.75385345,0.675569832324982,-3.39986610412598,-8.92173290252686,9.57145767939046
9.76178802,1.08072233200073,-2.89548540115356,-8.68019866943359,9.2139918280849
9.769722591,1.76880419254303,-2.35962963104248,-8.30534172058106,8.81335471672823
9.777687679,2.85539555549622,-1.77407491207123,-7.49355697631836,8.21303973747343
9.785591731,3.81081318855286,-1.19587159156799,-5.80676078796387,7.04775686798307
9.793526302,3.88111615180969,-0.849948883056641,-3.92409467697144,5.5842631314689
9.801399837,3.53260469436646,-0.418308973312378,-1.37768459320068,3.814746801841
9.809395442,2.99904465675354,-0.260712862014771,1.0203742980957,3.17858518178075
9.81736053,1.76130187511444,0.0109977722167969,3.90288639068604,4.28191866163729
9.825234065,0.470175683498383,0.693382740020752,6.45417499542236,6.5083192660661
9.833168636,0.149743109941483,2.82920837402344,8.7606725692749,9.20740065863678
9.841042171,0.538620710372925,6.49551391601563,11.7200145721436,13.410464379508
9.848915706,0.972090244293213,10.5110416412354,14.4655742645264,17.9075345770813
9.856880794,1.97580230236053,15.1776361465454,18.2892837524414,23.8487386230855
9.864754329,2.8599374294281,17.5602207183838,22.7216339111328,28.8585037964573
9.872688899,3.98154449462891,16.7346229553223,30.348217010498,34.8843027411441
9.880562434,3.93510413169861,13.982551574707,38.0521240234375,40.7303441645381
9.888497005,2.22851514816284,9.83992004394531,45.8205604553223,46.9181635049441
9.896462093,-0.156609177589417,6.47556972503662,48.4704513549805,48.9013515585597
9.904427181,-1.45246517658234,4.43940687179565,45.8389396667481,46.0763103800022
9.912422786,-1.65151119232178,4.6878867149353,39.8198356628418,40.1288310730098
9.920265804,-1.09747159481049,5.85564851760864,33.5185699462891,34.0439068660966
9.928230892,-1.04658770561218,7.34111642837524,25.8800163269043,26.9214149204928
9.936165462,-1.21566987037659,8.38439083099365,19.3521995544434,21.1254228463146
9.944038997,-2.69655799865723,8.33136749267578,13.1180028915405,15.7722892821747
9.951973567,-4.76382493972778,7.36990070343018,8.35194873809815,12.1146404056667
9.95987762,-5.71351194381714,5.9892430305481,5.66989898681641,10.0330955009813
9.967842708,-5.55315971374512,4.76152324676514,4.33711242675781,8.50413021056143
9.975807796,-4.04195928573608,3.93774700164795,4.02535820007324,6.931579542603
9.983742366,-1.90845799446106,2.99617624282837,3.48636150360107,4.97734874491461
9.991737972,-0.245398879051209,1.96455717086792,2.32171630859375,3.05124107619151
9.999611507,0.982373714447022,0.567342758178711,-0.161028861999512,1.14580374169887
10.007546077,1.61821842193604,-1.0801739692688,-3.31849002838135,3.84678862604192
10.015541683,1.60049676895142,-2.63673686981201,-5.9367618560791,6.69022515045987
10.023445735,1.36039137840271,-4.31342267990112,-8.42679595947266,9.5638470324709
10.031380306,0.984197437763214,-5.43261528015137,-9.96884155273438,11.395602453673
10.039253841,0.546537101268768,-6.37735509872437,-11.1551599502563,12.8610635008965
10.047218929,0.339207917451859,-6.83889865875244,-11.1968517303467,13.1245984908993
10.055370919,0.0897286236286163,-7.42209815979004,-9.720778465271,12.2306633626445
10.063244454,-0.388124287128449,-8.3062858581543,-8.41480255126953,11.8302124746974
10.071179025,-0.391602903604507,-8.7842493057251,-7.63385629653931,11.6444042636563
10.07905256,-0.421392887830734,-8.97323608398438,-7.53524446487427,11.7250350502782
10.08698713,-0.347248673439026,-8.82064914703369,-8.31893730163574,12.1296805747232
10.0949217,-0.10813108086586,-8.37749290466309,-9.86584949493408,12.9433019726429
10.102917306,0.220611274242401,-7.76018524169922,-11.4398984909058,13.8253543101809
10.110851876,0.745536684989929,-7.27027273178101,-12.6708374023438,14.6274676899242
10.118755929,1.43491661548615,-6.78669834136963,-13.8369188308716,15.4783262274148
10.126721017,1.76587474346161,-6.56306791305542,-14.2652034759521,15.8015253773581
10.134655587,1.75027239322662,-6.55681657791138,-14.1039419174194,15.6517243362131
10.142529122,1.68168640136719,-6.63458585739136,-13.4420394897461,15.0842376106827
10.150463693,1.67905056476593,-6.90544843673706,-12.2610569000244,14.1717304947953
10.158337228,1.36481475830078,-7.27108573913574,-11.3613080978394,13.557681543847
10.166302316,0.647881329059601,-7.73198699951172,-10.5416316986084,13.0892846269866
10.174267403,-0.15941995382309,-8.15395641326904,-9.91469383239746,12.8379738939347
10.182140939,-0.842156648635864,-8.33400344848633,-9.24035835266113,12.4719310367648
10.190075509,-1.41406083106995,-8.3369607925415,-8.64992713928223,12.096516969989
10.198010079,-1.78641605377197,-8.14352226257324,-8.31713962554932,11.7763767224509
10.20594465,-1.97855830192566,-7.8163948059082,-8.17724704742432,11.483818615363
10.21387922,-1.99292993545532,-7.49473381042481,-8.37423419952393,11.4136148106213
10.221783273,-1.80439114570618,-7.02335166931152,-8.57939147949219,11.233399050862
10.229717843,-1.40416467189789,-6.51202344894409,-8.76083755493164,11.0059257897418
10.237591378,-1.13417673110962,-6.03563690185547,-8.8349084854126,10.759687616936
10.245495431,-0.919914603233337,-5.60704183578491,-8.82920646667481,10.4995260777169
10.253613107,-0.940527856349945,-5.37327432632446,-8.92335605621338,10.4586305480435
10.261578194,-1.007319688797,-5.2894492149353,-9.19271469116211,10.653589505229
10.269512765,-1.12647366523743,-5.35740661621094,-9.56007766723633,11.0166162488073
10.277447335,-1.1884229183197,-5.43270874023438,-9.91590118408203,11.3688948267405
10.285473458,-1.3376362323761,-5.49316453933716,-10.5714817047119,11.9883423699632
10.293408028,-1.52279424667358,-5.4862208366394,-11.3264865875244,12.6770193580135
10.301373116,-1.87959146499634,-5.4664249420166,-12.3486003875732,13.6346102714365
10.309307687,-2.33743095397949,-5.2302713394165,-13.2948703765869,14.4766328985297
10.317150704,-2.96646785736084,-4.77408504486084,-13.8109817504883,14.9109032750078
10.325054757,-3.67560458183289,-4.07906818389893,-13.51194190979,14.5849731046865
10.333019845,-4.23507881164551,-3.52165818214417,-12.4586753845215,13.6219147416798
10.34089338,-4.63956642150879,-3.22728323936462,-10.4748983383179,11.9022867082242
10.348797433,-4.81099939346314,-3.21616196632385,-8.60071182250977,10.3663714390036
10.356701486,-4.94083786010742,-2.88097262382507,-6.17510271072388,8.4168744500016
10.364666573,-4.42719984054565,-2.22279930114746,-3.23976516723633,5.91920716820648
10.372570626,-3.48816728591919,-0.966159820556641,0.328250885009766,3.63435337535091
10.380474679,-2.03000283241272,1.238436460495,3.85283470153809,4.52757900026748
10.388439767,0.0858631730079651,4.42885160446167,7.6324520111084,8.82476190730913
10.396252267,3.15496063232422,8.44313526153565,15.401141166687,17.8447599836009
10.404247872,5.60438108444214,11.0109968185425,23.2113914489746,26.2948632108086
10.41221296,6.99849653244019,12.7456426620483,29.5439682006836,32.9283527924828
10.420086495,6.3949408531189,12.8616600036621,30.9275321960449,34.100290531051
10.428021066,5.92469882965088,11.3285789489746,31.3167533874512,33.8256973314025
10.435894601,6.29375696182251,8.40814590454102,34.8915824890137,36.438040875357
10.443768136,7.35863399505615,5.7783145904541,39.8694381713867,40.9525397732727
10.451702706,8.13460826873779,2.38843083381653,45.005184173584,45.7967581388897
10.459576241,6.47104072570801,-0.417547941207886,46.9653739929199,47.4109171884685
10.467510812,2.49488067626953,-2.64798045158386,45.1732978820801,45.319566101232
10.475384347,-1.08207106590271,-3.54057264328003,40.1706352233887,40.3408783578712
10.483349435,-4.75089597702026,-3.31127142906189,31.1720581054688,31.7054054948381
10.491314523,-7.00341987609863,-2.15305376052856,22.5852355957031,23.7439760227742
10.499249093,-8.40897560119629,-0.148589134216309,13.7404737472534,16.1100455676352
10.507183663,-9.39625549316406,2.37916612625122,6.87937355041504,11.8859509167448
10.515148751,-9.07216644287109,4.64048480987549,2.3374605178833,10.4547608729471
10.523022286,-7.73801994323731,7.4458179473877,-1.32477140426636,10.8199896867391
10.530956857,-6.10465478897095,9.28672695159912,-4.00661516189575,11.8136815862624
10.538830392,-3.56940078735352,10.1101179122925,-5.66440200805664,12.1260280508538
10.546764962,-1.29973101615906,10.0844287872314,-5.69991731643677,11.6565029958956
10.55460798,1.58780241012573,9.57509994506836,-5.5814847946167,11.196277415471
10.562603585,3.64631676673889,8.39199733734131,-6.10090589523315,10.9973768697738
10.570568673,3.93882322311401,6.91796731948853,-6.92791843414307,10.5531347971393
10.578503243,3.40170574188232,4.59632301330566,-7.26224613189697,9.24326814915866
10.586498849,2.25630259513855,2.46104621887207,-7.24625587463379,7.97846314103902
10.594463937,0.700981259346008,0.37985110282898,-6.56968116760254,6.6178827603869
10.602337472,-0.933200836181641,-1.09464693069458,-5.19913387298584,5.39445166191689
10.61030256,-2.28984546661377,-2.66299247741699,-3.86582660675049,5.22298157657206
10.618206612,-3.5180139541626,-3.92357754707336,-2.56466102600098,5.86074817134036
10.626202218,-4.35585641860962,-4.64477300643921,-2.65271472930908,6.89813720188156
10.634106271,-4.76801872253418,-5.27031850814819,-3.73832416534424,8.03027566656105
10.642101876,-4.97564029693604,-5.78126525878906,-4.83977746963501,9.03346391549564
10.650066964,-5.08280944824219,-6.20837306976318,-6.31804323196411,10.2125666872471
10.658001534,-4.36106109619141,-6.14070320129395,-7.60047769546509,10.700203310702
10.665936105,-3.72155833244324,-5.7564640045166,-8.64668464660645,11.0341302165115
10.673840157,-3.01972699165344,-5.24732398986816,-9.73799228668213,11.4665449867973
10.68174421,-2.60366225242615,-4.89858770370483,-10.5162410736084,11.8897663952596
10.68967878,-2.36376523971558,-4.69950914382935,-10.9505500793457,12.148552150017
10.697643868,-2.41591429710388,-4.91818046569824,-10.7396230697632,12.0567261171811
10.705608956,-2.78993654251099,-5.42900133132935,-10.4592571258545,12.1100727079383
10.713513009,-3.14889430999756,-5.96469402313232,-9.90029335021973,11.9795207994949
10.721447579,-3.29139041900635,-6.33832502365112,-9.23850631713867,11.6772262959823
10.72938215,-3.34178638458252,-6.78066873550415,-8.51910495758057,11.3894755813908
10.737255685,-3.3064591884613,-7.07111644744873,-8.0013427734375,11.1783203727743
10.745190255,-3.09404516220093,-7.27561569213867,-7.47129917144775,10.8778679195286
10.75306379,-2.93182492256165,-7.27849388122559,-7.39955902099609,10.7854320386713
10.760937325,-2.77929902076721,-6.95589447021484,-7.88524532318115,10.8759397173004
10.768902413,-2.69754719734192,-6.39651584625244,-8.6001443862915,11.0523598981533
10.776775948,-2.60995006561279,-5.89208078384399,-9.11293888092041,11.1612772725942
10.784710519,-2.60109853744507,-5.29943656921387,-9.79348945617676,11.4351290889463
10.792675607,-2.59212327003479,-4.88676118850708,-10.5625267028809,11.9233597743936
10.800671212,-2.76868438720703,-4.66347312927246,-11.4364061355591,12.6572105995304
10.8086363,-3.04994964599609,-4.74300670623779,-11.9098606109619,13.1773701940513
10.81657087,-3.32092428207397,-4.89857292175293,-11.8404769897461,13.2371239361769
10.824566476,-3.86377620697022,-5.2695198059082,-11.2948808670044,13.0487907241334
10.832409493,-4.42631673812866,-5.55734634399414,-10.4530725479126,12.6389518531114
10.840313546,-4.87789487838745,-5.87881088256836,-9.74060344696045,12.3787572618797
10.848278634,-5.18130207061768,-6.13555812835693,-9.59329795837402,12.5108884741083
10.856152169,-5.54293727874756,-6.18544483184814,-9.76457977294922,12.8191614228956
10.864086739,-5.79306316375732,-6.06048965454102,-10.0497913360596,13.0876820549102
10.871990792,-5.93632221221924,-5.73454809188843,-10.1500225067139,13.0823514748789
10.879925362,-5.38659334182739,-5.12657165527344,-9.39868927001953,11.9846770820599
10.887859933,-4.26893043518066,-4.34302806854248,-8.51707077026367,10.4702509220285
10.895825021,-2.64785599708557,-3.40021133422852,-6.98559474945068,8.20799077133199
10.903759591,-0.915188193321228,-2.51748919487,-5.48453760147095,6.10372623709734
10.911633126,0.870194494724274,-1.24051642417908,-3.36272144317627,3.68836209742264
10.919598214,2.07280826568604,0.253334522247314,-1.26999568939209,2.44409523904718
10.927502267,2.93616271018982,2.10634875297546,0.253154754638672,3.62240857160905
10.935375802,2.81423950195313,3.79205131530762,2.32809638977051,5.26494348994764
10.943310372,1.74394595623016,5.05740737915039,3.95463180541992,6.65265583157397
10.951183907,0.198840826749802,6.82151174545288,5.6772518157959,8.87714753441059
10.959057443,-0.376332640647888,8.6926736831665,8.37860012054443,12.0791200837818
10.96702253,0.58832049369812,11.074257850647,13.7728719711304,17.6826839105117
10.974896066,2.99754500389099,12.9869728088379,19.6317100524902,23.7286910379164
10.982800118,5.65479135513306,13.999137878418,26.7974681854248,30.7580367994757
10.990704171,6.27287721633911,12.949369430542,32.4489479064941,35.4960473497866
10.998669259,5.64429712295532,10.1526966094971,37.7540054321289,39.5006362559632
11.006634347,4.47365379333496,6.58773994445801,43.2683563232422,43.9950287504563
11.014507882,3.25524401664734,3.34485840797424,47.062873840332,47.293749962213
11.022442452,1.07621097564697,0.299437284469605,48.8792839050293,48.8920472860351
11.030315987,-0.393504679203033,-1.03770744800568,47.4638290405273,47.4768022287581
11.038281075,-1.40947389602661,-1.04669809341431,41.9712524414063,42.0079543070427
11.046246163,-1.89484310150146,-0.399321794509888,35.3606185913086,35.4136024069125
11.054180734,-1.7493007183075,0.816912651062012,27.0689468383789,27.1377095979289
11.062145821,-1.01988530158997,2.71335315704346,19.0162582397461,19.2359176756387
11.070049874,-0.320458054542542,4.63145685195923,13.1245965957642,13.921498544978
11.077984444,1.11105072498322,6.15809440612793,7.5956916809082,9.84129526737654
11.085919015,1.95578598976135,6.0420355796814,4.29251194000244,7.66530831336524
11.093853585,2.91313219070435,4.71212387084961,2.08835315704346,5.92044503760334
11.101849191,4.11702966690064,3.44930553436279,0.701485633850098,5.4166155523559
11.109692208,4.24477005004883,2.49298477172852,-1.24023485183716,5.07653704187937
11.117565743,3.79486036300659,1.78496503829956,-4.79671287536621,6.37146135289027
11.125530831,3.01333570480347,0.969949245452881,-8.58777046203613,9.15263869696703
11.133434884,2.68240547180176,-0.19111442565918,-12.7205333709717,13.001684240161
11.141399972,2.08057618141174,-1.35191249847412,-15.1133365631104,15.3156588731937
11.149273507,0.905017375946045,-2.89364242553711,-16.6034183502197,16.8779656312615
11.157269112,-0.839825868606567,-4.64934396743774,-17.3954696655273,18.0256503822029
11.1652342,-2.00050401687622,-6.14908504486084,-17.3747024536133,18.5389737731641
11.173107736,-3.05480599403381,-7.81993865966797,-16.101900100708,18.1591427979224
11.181042306,-3.71212553977966,-9.21637153625488,-13.4991302490234,16.7615004637853
11.188915841,-4.56727409362793,-10.7057991027832,-9.27577877044678,14.8833530789856
11.196850411,-5.55300855636597,-11.505823135376,-6.42468357086182,14.3002247896783
11.204815499,-6.63735723495483,-11.7652359008789,-5.60272407531738,14.6241513918544
11.212719552,-7.27771329879761,-11.5092887878418,-6.74271488189697,15.1951651271051
11.220654122,-7.51449584960938,-10.9301643371582,-9.02759265899658,16.0447365054042
11.228527657,-7.3448338508606,-10.1689720153809,-10.6708030700684,16.4687769523583
11.236492745,-6.67569065093994,-9.23983478546143,-11.6887712478638,16.3268725056135
11.244427316,-5.52359104156494,-7.95314455032349,-13.1286945343018,16.31334381443
11.252300851,-4.25665998458862,-6.67282772064209,-14.518404006958,16.5357140433373
11.260265939,-2.71222233772278,-5.26193189620972,-15.8228006362915,16.8939367012375
11.268139474,-1.65065550804138,-4.43794584274292,-16.1814994812012,16.8600401058082
11.276135079,-0.849287986755371,-3.99696159362793,-15.8316984176636,16.3505249717933
11.284130685,-0.386481046676636,-3.96791934967041,-14.7543811798096,15.2835046885212
11.292095773,-0.399456024169922,-4.19689846038818,-13.3216323852539,13.9728097106452
11.300030343,-0.851062059402466,-4.63828229904175,-11.4919099807739,12.4218341769954
11.307873361,-1.31391453742981,-5.06000375747681,-9.81391048431397,11.1194805828094
11.315868966,-1.66787445545197,-5.54833936691284,-8.00843811035156,9.88437938855623
11.323834054,-2.07588744163513,-5.80583238601685,-6.58927631378174,9.02416537438369
11.331707589,-2.5084536075592,-5.73906803131104,-5.99023532867432,8.66672721747898
11.339642159,-2.5893177986145,-5.46732521057129,-5.82187175750732,8.39585626253997
11.347546212,-2.30635094642639,-5.10879945755005,-6.04564666748047,8.24432715347731
11.3555113,-1.56230902671814,-4.5255298614502,-6.61964988708496,8.16951618208975
11.36344587,-0.680798947811127,-3.87286233901978,-7.02817964553833,8.05343771530505
11.371319405,0.331617712974548,-2.99360704421997,-7.46877193450928,8.05321101502223
11.379284493,1.25237452983856,-2.16782164573669,-7.4156551361084,7.82686615117467
11.387158028,1.65189778804779,-1.78883516788483,-7.05220603942871,7.4607176318752
11.395123116,1.54390144348145,-1.91954064369202,-6.14778900146484,6.6229583689241
11.403088204,1.11746144294739,-2.36666011810303,-5.23663330078125,5.85424021696621
11.410992257,-0.0559825897216797,-3.07369112968445,-4.25016450881958,5.24543702307848
11.418987862,-1.26064336299896,-3.50627541542053,-3.47409725189209,5.09436362002752
11.42683088,-2.08415746688843,-3.60384511947632,-2.82987976074219,5.03384857263489
11.434734933,-2.12426567077637,-3.34725856781006,-2.89916133880615,4.91139298246894
11.442700021,-1.27829670906067,-2.6987988948822,-3.23692274093628,4.40400122413734
11.450543038,0.430891156196594,-1.64813685417175,-3.47789239883423,3.87269387073604
11.458477609,2.43041205406189,-0.515637516975403,-3.2848482131958,4.11861780032787
11.466381661,4.72282123565674,0.859774589538574,-2.86418104171753,5.58997189693478
11.474316232,6.37346935272217,1.71010613441467,-1.96633005142212,6.88563929146576
11.482220284,6.47640895843506,1.74710631370544,-0.186929702758789,6.71052875577333
11.490124337,5.82761478424072,0.9769446849823,1.7492151260376,6.16240769084414
11.498058907,5.06013679504395,-0.376763582229614,3.7183313369751,6.29070132123463
11.50596296,4.13453578948975,-1.75873327255249,6.23883056640625,7.68833764573849
11.513958566,3.90367889404297,-2.68075037002563,9.16073894500732,10.3123357913114
11.521893136,4.87736797332764,-3.07789897918701,13.9995470046997,15.1409873129238
11.529736153,6.61097288131714,-2.35369873046875,17.9988250732422,19.318451391571
11.537640206,8.70993804931641,-0.412588238716126,19.8761711120605,21.7047328468601
11.545544259,9.14849185943604,1.28599452972412,18.6331062316895,20.7976280636536
11.553478829,7.67385339736939,2.06496429443359,16.0192337036133,17.8820567036508
11.5614134,5.99687767028809,1.42747473716736,14.6420269012451,15.8867610825629
11.569286935,4.37499046325684,0.415534853935242,13.7176446914673,14.4044085838247
11.57728254,1.65280187129974,-0.21580958366394,12.5504598617554,12.660662326423
11.585156075,-0.470419704914093,0.0281238555908203,12.2539033889771,12.262961873724
11.593090646,-1.6303676366806,1.05372846126556,13.3256196975708,13.4662757518589
11.601025216,-1.40292739868164,2.14943361282349,15.7464599609375,15.9542869299544
11.608929269,-0.257054448127747,3.36958408355713,19.123929977417,19.4202181158352
11.616924874,1.68532180786133,4.44743967056274,22.0723285675049,22.5789219762867
11.624767892,3.38868975639343,5.27615737915039,23.4900779724121,24.3126472870531
