Time (s),Linear Acceleration x (m/s^2),Linear Acceleration y (m/s^2),Linear Acceleration z (m/s^2),Absolute acceleration (m/s^2)
0.033537784,0.492384672164917,-0.599878549575806,-1.76385116577148,1.92703603355452
0.041472354,0.866511225700378,-0.576685428619385,-0.778542518615723,1.29982161896901
0.049345889,1.34772479534149,-0.536453485488892,-0.284514427185059,1.47820598204306
0.057280459,1.8537665605545,-0.49970006942749,-0.398947715759277,1.96094617476499
0.06521503,2.60151720046997,-0.565938472747803,-0.846898078918457,2.79381718359541
0.073119082,3.15480709075928,-0.555719137191773,-1.4112229347229,3.50045450060904
0.081053653,1.696368932724,-0.5728919506073,-2.12208652496338,2.77653092228647
0.088957705,1.01668846607208,-0.620577573776245,-2.34822416305542,2.63304551462282
0.096922793,0.240692853927612,-0.639357805252075,-2.48903226852417,2.58108370395521
0.104857364,-0.125354826450348,-0.582124710083008,-2.46051931381226,2.53154859804167
0.112730899,-0.305432677268982,-0.484381675720215,-2.23469209671021,2.30689477332978
0.120695987,-0.368196606636047,-0.426507711410522,-2.1012077331543,2.17544283006894
0.128600039,-0.438846468925476,-0.247028827667236,-2.14157438278198,2.19998870496533
0.136565127,-0.46977972984314,-0.180174589157105,-2.22093105316162,2.2772111496405
0.144560733,-0.366130232810974,-0.238125562667847,-2.20092916488647,2.24384587702052
0.152434268,-0.120529413223267,-0.337459325790405,-2.0462646484375,2.0774034628497
0.160368838,0.145355463027954,-0.403190135955811,-1.71374416351318,1.76652471093377
0.168272891,0.525978684425354,-0.42146635055542,-1.3126802444458,1.47560729371965
0.176237979,0.875657081604004,-0.412746429443359,-0.94868278503418,1.3554091508477
0.184142032,1.05154836177826,-0.393279790878296,-0.748732566833496,1.34945300314938
0.192046084,1.142857670784,-0.410128355026245,-0.609441757202148,1.35858315118656
0.199950137,1.11931967735291,-0.418594360351563,-0.514383316040039,1.30103342556903
0.20785419,1.08614099025726,-0.438258647918701,-0.41153621673584,1.24142456511775
0.215819278,1.04980683326721,-0.374855279922485,-0.275572776794434,1.14828185711109
0.223784366,1.0070059299469,-0.298904180526733,-0.155713081359863,1.0619092314276
0.231688418,0.917661011219025,-0.193782329559326,-0.127969741821289,0.946588388679456
0.239622989,0.901507496833801,-0.134188413619995,0.0292816162109375,0.911909924414315
0.247527041,0.880171298980713,-0.0455212593078613,0.237478256225586,0.912781256807081
0.255461612,0.741142511367798,-0.0194876194000244,0.496561050415039,0.89232553827386
0.263396182,0.522062420845032,-0.000405550003051758,0.825586318969727,0.976801978806024
0.271300235,0.25429180264473,-0.0153331756591797,1.01624774932861,1.04769218532142
0.279234805,-0.337459892034531,-0.124696016311646,1.08816146850586,1.14609059709814
0.28710834,-0.638773202896118,0.00550746917724609,2.14077758789063,2.23405242055098
0.295073428,-0.716523945331574,0.0814998149871826,2.52893352508545,2.62974401004691
0.303007998,-0.784507036209106,0.0924153327941895,2.63064861297607,2.74668964547326
0.310912051,-0.518084526062012,0.25258207321167,2.59937477111816,2.66250980854126
0.318816104,-0.428387463092804,0.166085004806519,2.61501502990723,2.65507130864641
0.326720157,-0.341382622718811,-0.0229134559631348,2.59058666229248,2.61308369104517
0.334593692,-0.167475923895836,-0.177488327026367,2.41102504730225,2.42334315977622
0.34255878,0.0750888884067535,-0.287973880767822,2.2295389175415,2.24931346903867
0.350462832,0.495348632335663,-0.321865320205689,2.19420146942139,2.27233088266628
0.35842792,0.872183322906494,-0.342964887619019,2.04623603820801,2.25064670416237
0.366301455,1.18635392189026,-0.33080530166626,1.79009532928467,2.17285735001672
0.374266543,1.51017904281616,-0.277378559112549,1.69851112365723,2.28965491801796
0.382201114,1.77260327339172,-0.184262990951538,1.67788600921631,2.44772888094194
0.390074649,1.89066576957703,-0.0697305202484131,1.59624195098877,2.47537224752174
0.398009219,1.85613679885864,-0.024965763092041,1.58209228515625,2.43903323145768
0.405882754,1.60120153427124,-0.0718624591827393,1.7814884185791,2.3963955332799
0.413786807,1.2115912437439,-0.146594285964966,2.16263675689697,2.48323196034449
0.421751895,0.798911690711975,-0.240436315536499,2.74164390563965,2.86577752393937
0.429655948,0.448214650154114,-0.425838232040405,3.3422155380249,3.39891736808872
0.437621036,0.153426885604858,-0.608944654464722,3.95402336120605,4.00358016560063
0.445525088,-0.0144753754138947,-0.810897588729858,4.53247451782227,4.60446410460647
0.453490176,0.0159231871366501,-0.987630367279053,4.78208160400391,4.88302895318192
0.461424747,0.107833936810493,-1.2553368806839,4.8526086807251,5.01351272564275
0.469267764,0.307313859462738,-1.50170481204987,4.68805027008057,4.93227883290818
0.47726337,0.695010304450989,-1.66119730472565,4.30784416198731,4.6690616972245
0.485136905,1.17885982990265,-1.68507218360901,3.87569427490234,4.38750326211181
0.493040957,1.65447795391083,-1.6489086151123,3.35999774932861,4.09216101790507
0.501006045,2.14144420623779,-1.55523920059204,2.69365882873535,3.77628787900386
0.508910098,2.38470649719238,-1.55308055877686,2.13839435577393,3.55972115770435
0.516814151,2.51504135131836,-1.49900221824646,1.42485523223877,3.25617153755561
0.524718204,2.54512214660645,-1.40063583850861,0.808722496032715,3.01553636503536
0.532683291,2.57788515090942,-1.19819629192352,0.107433319091797,2.84476855355751
0.540617862,2.45931839942932,-0.971634268760681,-0.499797821044922,2.69111835561407
0.548521914,2.28890872001648,-0.775259971618652,-1.02574253082275,2.62531500808956
0.556425967,2.04201817512512,-0.663055300712585,-1.60474586486816,2.68042717680519
0.56433002,1.78955042362213,-0.609917640686035,-1.99113368988037,2.74574281717767
0.57226459,1.50422990322113,-0.548239707946777,-2.23644876480103,2.75045040978641
0.580168643,1.27035272121429,-0.482182264328003,-2.23734998703003,2.61763838923414
0.588072696,1.1169525384903,-0.400658130645752,-2.05074214935303,2.36931493770363
0.596007266,1.03163552284241,-0.327759027481079,-1.81870651245117,2.11645723096829
0.603911319,0.974248051643372,-0.369776725769043,-1.48524475097656,1.8143445271929
0.611815372,0.867351830005646,-0.459661245346069,-1.21011543273926,1.55819351110219
0.619780459,0.795237362384796,-0.549843192100525,-1.01179981231689,1.39945305696066
0.627653995,0.831087708473206,-0.638099193572998,-0.855982780456543,1.35299071706049
0.635619082,0.916174054145813,-0.675776243209839,-0.732644081115723,1.35381526729856
0.643492618,1.06330323219299,-0.659363746643066,-0.646211624145508,1.40817746650059
0.651488223,1.07110404968262,-0.630865812301636,-0.760986328125,1.45751698102309
0.659422793,1.08952856063843,-0.562382340431213,-1.11803531646729,1.65932195493938
0.667296329,1.07386302947998,-0.491520762443543,-1.59296846389771,1.9830085710782
0.675261416,1.11470198631287,-0.451889276504517,-1.88397026062012,2.23519761529281
0.683134952,1.13776969909668,-0.3747398853302,-2.18119287490845,2.48848392146528
0.691039004,1.09917414188385,-0.272236824035645,-2.42538642883301,2.67671365889489
0.698973575,0.995518088340759,-0.178709030151367,-2.66009616851807,2.84589262050341
0.70684711,0.894293546676636,-0.122482538223267,-2.70889663696289,2.85532553477637
0.714812198,0.788349628448486,-0.107923746109009,-2.63656091690063,2.75401454973952
0.72271625,0.814353227615356,-0.0872962474822998,-2.39997529983521,2.5358772158705
0.730681338,0.917369961738586,-0.0771303176879883,-2.06385707855225,2.25987229136894
0.738585391,1.09859728813171,0.00651097297668457,-1.53668165206909,1.88900738327442
0.746489444,1.10079956054688,0.0874664783477783,-1.07176971435547,1.53886333959334
0.754454532,0.959750115871429,0.197593450546265,-0.640013694763184,1.17037642923054
0.762358584,0.791452050209045,0.343372344970703,-0.451361656188965,0.973667427692036
0.770323672,0.546398282051086,0.450975894927979,-0.376449584960938,0.802274660232848
0.778258243,0.275093019008637,0.553290605545044,-0.381479263305664,0.726177038761155
0.786162295,0.0785867869853973,0.603592157363892,-0.401333808898926,0.729087238734299
0.794066348,-0.0648862719535828,0.687908887863159,-0.467660903930664,0.834347402078061
0.801939883,-0.0914378762245178,0.789918422698975,-0.537468910217285,0.959794159795652
0.809904971,0.0364145934581757,0.953950643539429,-0.596712112426758,1.12579447415717
0.817839541,0.240634858608246,1.06111145019531,-0.624049186706543,1.25431257362035
0.825713077,0.521878957748413,1.15711164474487,-0.567594528198242,1.3904778147764
0.833647647,0.790782868862152,1.19583511352539,-0.48775577545166,1.51435295123448
0.841582217,1.0898689031601,1.13485169410706,-0.305777549743652,1.60287320260221
0.849516788,1.35921502113342,1.05631375312805,0.0826730728149414,1.72339753269258
0.857451358,1.50000464916229,0.994110584259033,0.515321731567383,1.87185103260648
0.865324893,1.5554393529892,0.931109189987183,1.15024089813232,2.14695366234167
0.873259463,1.52357161045074,0.827709913253784,1.68455219268799,2.41745532379814
0.881163516,1.5239542722702,0.786406517028809,2.31949710845947,2.8846037284431
0.889037051,1.48740470409393,0.750339508056641,2.86658191680908,3.3155201728972
0.896971622,1.35732197761536,0.60205340385437,3.14472103118897,3.47765173874735
0.904845157,1.01679646968842,0.421563625335693,3.18151187896729,3.36654255683586
0.912810245,0.707509458065033,0.258537292480469,2.98122501373291,3.07491686836594
0.92068378,0.407849848270416,0.101953744888306,2.63452911376953,2.66786051286986
0.928648868,0.245409101247787,0.00606918334960938,2.30363750457764,2.31668042993816
0.936583438,0.108175091445446,-0.00170397758483887,1.87011623382568,1.8732430386811
0.944487491,0.157290816307068,0.0076446533203125,1.56030464172363,1.56823130200977
0.952422061,0.257015883922577,0.0458471775054932,1.4141149520874,1.43801259590828
0.960326114,0.356702268123627,-0.00572037696838379,1.42307376861572,1.46710878319208
0.968199649,0.459237933158875,-0.112781763076782,1.59252834320068,1.66125426387181
0.976134219,0.583509087562561,-0.285590171813965,1.88202667236328,1.9909969856812
0.984038272,0.587305188179016,-0.450076580047607,2.27974700927734,2.39681929612525
0.991972842,0.472452938556671,-0.609762668609619,2.67924499511719,2.78807748010009
0.999846377,0.262997448444366,-0.649460315704346,2.89943218231201,2.98289680334229
1.007811465,-0.127396047115326,-0.699977397918701,2.81401634216309,2.9025654315413
1.015746036,-0.6046222448349,-0.820445537567139,2.61275005340576,2.80448957577575
1.023619571,-1.16148030757904,-1.06211018562317,2.30922698974609,2.79457399999896
1.031584659,-1.63806211948395,-1.25319337844849,2.01518249511719,2.88352243613642
1.039458194,-1.88549542427063,-1.38816177845001,1.8490514755249,2.98346735816496
1.047423282,-2.03694295883179,-1.51598048210144,1.74810981750488,3.08272953301192
1.055357852,-2.08262181282043,-1.65244519710541,1.78859901428223,3.20421209949709
1.063231387,-2.04380822181702,-1.81650257110596,1.59694290161133,3.16655337384485
1.071104922,-2.06842088699341,-1.88582670688629,2.17833805084229,3.54681039779455
1.079008975,-1.79303526878357,-1.89304101467133,2.25082302093506,3.44452958034923
1.08688251,-1.48349583148956,-1.86429393291473,2.18179702758789,3.23057116001814
1.094786563,-1.26285970211029,-1.83687674999237,2.04829120635986,3.02728057634699
1.102690616,-0.830792605876923,-1.76667773723602,1.83938503265381,2.68229451767997
1.110625186,-0.530898451805115,-1.72106146812439,1.47388172149658,2.32728018771984
1.118468204,-0.270381510257721,-1.72038054466248,1.00980281829834,2.01308646396166
1.126433291,-0.171413064002991,-1.72387790679932,0.61332893371582,1.83774586300573
1.134367862,-0.155806124210358,-1.66627812385559,0.101602554321289,1.67662798897841
1.142271914,-0.239711880683899,-1.53016114234924,-0.349068641662598,1.58767245484978
1.150237002,-0.348160356283188,-1.30410313606262,-0.809445381164551,1.57388133233234
1.158110538,-0.514038324356079,-1.10973978042603,-1.09848785400391,1.64390794893173
1.166045108,-0.743668258190155,-0.942990303039551,-1.38920259475708,1.83634338813469
1.174010196,-1.0412061214447,-0.837279558181763,-1.57555723190308,2.06579956357945
1.181883731,-1.28939640522003,-0.71958065032959,-1.68433237075806,2.23993636903073
1.189848819,-1.45877230167389,-0.631907939910889,-1.82775783538818,2.42240025129545
1.197752872,-1.50652134418488,-0.535940408706665,-1.91256141662598,2.49293599086211
1.205717959,-1.55555057525635,-0.458306789398193,-1.92199897766113,2.51472916544094
1.213683047,-1.53011035919189,-0.431731224060059,-1.8684229850769,2.45329044597219
1.2215871,-1.44440841674805,-0.43182897567749,-1.77496385574341,2.32879553155763
1.22952167,-1.19133758544922,-0.409170627593994,-1.643630027771,2.0708031082602
1.237395205,-0.946002960205078,-0.395831346511841,-1.47401142120361,1.79563741480201
1.245360293,-0.636570632457733,-0.374467611312866,-1.3324613571167,1.52345050140767
1.253325381,-0.475057274103165,-0.308164358139038,-1.26878070831299,1.38940604975392
1.261198916,-0.405342787504196,-0.301166296005249,-1.34958028793335,1.44096178533973
1.269133487,-0.328877836465836,-0.30119514465332,-1.47100687026978,1.537120801649
1.277007022,-0.265305906534195,-0.258044004440308,-1.64350461959839,1.68466060882029
1.28497211,-0.175702214241028,-0.166591167449951,-1.92469692230225,1.93986652321269
1.29290668,-0.0971739441156387,-0.122557401657104,-2.12314987182617,2.12890311436463
1.300780215,-0.147434204816818,-0.0494811534881592,-2.23960256576538,2.24499551934594
1.308745303,-0.308761835098267,-0.0326929092407227,-2.31259870529175,2.33334855279809
1.316618838,-0.439654648303986,0.072314977645874,-2.36629343032837,2.40787671282863
1.324583926,-0.51084840297699,0.195068597793579,-2.38431644439697,2.44621805154224
1.332518497,-0.584996223449707,0.371461868286133,-2.33316516876221,2.43389897197197
1.340392032,-0.54557079076767,0.522939682006836,-2.19386529922485,2.320378923775
1.348326602,-0.561021566390991,0.594470024108887,-1.99757528305054,2.158343535903
1.356230655,-0.58870655298233,0.611221551895142,-1.83488750457764,2.02162789491058
1.36410419,-0.63573557138443,0.618350028991699,-1.7176570892334,1.9330965706015
1.37203876,-0.644252181053162,0.613099336624146,-1.60744762420654,1.8370736332352
1.379912295,-0.62606692314148,0.566205501556397,-1.58547496795654,1.79618466095816
1.387846866,-0.619759559631348,0.530853271484375,-1.5058708190918,1.71276210589571
1.395750918,-0.526663601398468,0.54586124420166,-1.33768129348755,1.53776795710728
1.403746524,-0.314590334892273,0.629129409790039,-0.971163749694824,1.19913715720584
1.411650577,-0.113252073526382,0.699071645736694,-0.719884872436523,1.00983237598821
1.419554629,0.0232655107975006,0.68319582939148,-0.504623413085938,0.849672062813107
1.427519717,0.169403210282326,0.666521310806274,-0.207673072814941,0.718384444838049
1.43542377,0.238220661878586,0.650821685791016,0.00680065155029297,0.693083111396634
1.443388858,0.33477395772934,0.638228416442871,0.203555107116699,0.748895050031866
1.451353946,0.321359485387802,0.618205070495606,0.270429611206055,0.747383169901656
1.459257998,0.242545828223228,0.587936401367188,0.212416648864746,0.670535997211201
1.467192569,0.19602145254612,0.590579032897949,0.0861721038818359,0.628198722892995
1.475066104,0.186909273266792,0.627357244491577,0.0349597930908203,0.655541284574921
1.483031192,0.247731357812881,0.635310411453247,0.144390106201172,0.697021267475745
1.490965762,0.291467010974884,0.646922588348389,0.275094985961914,0.761011895507158
1.49880878,0.33437779545784,0.583904504776001,0.467474937438965,0.819320326811508
1.506773868,0.305052727460861,0.463317394256592,0.659128189086914,0.861492973854705
1.514647403,0.287620723247528,0.313703060150147,0.888391494750977,0.98507600637457
1.522612491,0.261935591697693,0.218950986862183,1.04503440856934,1.09938469333523
1.530547061,0.266816467046738,0.155940771102905,1.06981182098389,1.11355551433071
1.538420596,0.331727623939514,0.0784776210784912,1.18666839599609,1.23465940062458
1.546355166,0.335109829902649,0.0481359958648682,1.19195079803467,1.23909740421436
1.554259219,0.461361110210419,0.0385622978210449,1.16232872009277,1.25113915228496
1.562193789,0.565809607505798,0.0227901935577393,1.17615509033203,1.30537377841836
1.57012836,0.798309803009033,0.0723519325256348,1.12586784362793,1.38206792345236
1.577971377,1.00952100753784,0.135712862014771,1.19777202606201,1.57232581610592
1.585936465,1.2984836101532,0.249358892440796,1.40293121337891,1.92781107283587
1.59381,1.56488466262817,0.308194160461426,1.74818420410156,2.3664309961082
1.601744571,1.62953472137451,0.257747650146484,2.0186128616333,2.60703186487479
1.609679141,1.57208120822907,0.124014616012573,2.37332344055176,2.84947067079557
1.617552676,1.44493126869202,-0.0252394676208496,2.65246772766113,3.02060398732663
1.625517764,1.19587886333466,-0.236072301864624,2.9089183807373,3.15399152396921
1.633421817,1.02723836898804,-0.444211959838867,3.09486484527588,3.29100764850366
1.641295352,0.922390937805176,-0.617669105529785,3.29706287384033,3.47892853622022
1.649229922,0.899184584617615,-0.816105842590332,3.36691570281982,3.57920144912503
1.657103457,0.985006630420685,-1.02018260955811,3.42860889434814,3.71030585925483
1.665068545,1.17455947399139,-1.20645499229431,3.46560001373291,3.85298677152678
1.672972598,1.41878151893616,-1.28174424171448,3.4802885055542,3.97092147763409
1.680937686,1.70498132705688,-1.33624935150146,3.51403331756592,4.12806901734504
1.688872256,1.92085349559784,-1.32621562480927,3.42142295837402,4.14181857342008
1.696776309,2.13837671279907,-1.31682121753693,3.21109962463379,4.07649774734637
1.704710879,2.26294612884522,-1.36251413822174,2.94607925415039,3.95686150005847
1.712584414,2.26167845726013,-1.43648409843445,2.6184024810791,3.74629250886937
1.720488467,2.25879263877869,-1.38026034832001,2.16465473175049,3.41950185287785
1.728453555,2.28818583488464,-1.21429944038391,1.69682693481445,3.0966981113107
1.73632709,2.10702514648438,-0.95123028755188,1.10173988342285,2.56090312167371
1.744261661,1.84371745586395,-0.817728281021118,0.541887283325195,2.0884480904415
1.752104678,1.4411735534668,-0.740700721740723,-0.058201789855957,1.62142104918549
1.760008731,1.09034132957459,-0.735731840133667,-0.438759803771973,1.38659861566748
1.767973819,0.744114637374878,-0.69540548324585,-0.830395698547363,1.31409755948708
1.775847354,0.490392625331879,-0.668874979019165,-1.06278133392334,1.348103418983
1.783781924,0.348108053207397,-0.665160179138184,-1.06898021697998,1.30626796060898
1.791685977,0.291659027338028,-0.696422338485718,-0.90638542175293,1.17966249178988
1.799651065,0.281272858381271,-0.782697916030884,-0.747857093811035,1.11849035819919
1.807616153,0.235666692256928,-0.904513835906982,-0.577375411987305,1.09865665043907
1.815489688,0.255010187625885,-1.02066278457642,-0.479581832885742,1.15619265265194
1.823424258,0.291876494884491,-1.11155557632446,-0.324501991271973,1.19417303179378
1.831297793,0.402409911155701,-1.13936865329742,-0.19255542755127,1.22358990572519
1.839201846,0.474500119686127,-1.13742196559906,-0.116597175598145,1.23793133604689
1.847166934,0.472569108009338,-1.08648192882538,-0.177351951599121,1.19800595083867
1.855070987,0.402953326702118,-1.05862820148468,-0.361330032348633,1.18895939575582
1.863005557,0.157170489430428,-0.961106061935425,-0.712260246276856,1.20654137246229
1.87090961,-0.0788274183869362,-0.841808319091797,-1.07934761047363,1.37107486017972
1.878874698,-0.287390291690826,-0.72844934463501,-1.55151033401489,1.73793439001946
1.886839786,-0.37401482462883,-0.625862836837769,-1.97788429260254,2.10798900720583
1.894743838,-0.393633455038071,-0.498540878295898,-2.39814710617065,2.48084659886337
1.902678409,-0.324667155742645,-0.451828479766846,-2.8369722366333,2.89101525568002
1.910521426,-0.204923689365387,-0.455065965652466,-2.99803638458252,3.0392928313736
1.918425479,0.0510572865605354,-0.403055906295776,-2.93471240997314,2.96270110530259
1.926421084,0.346535474061966,-0.295362234115601,-2.81712865829468,2.85368876395277
1.93429462,0.633336186408997,-0.15092134475708,-2.6573805809021,2.73597579102483
1.94222919,0.756883263587952,-0.0856895446777344,-2.49352836608887,2.60727802224014
1.950102725,0.87492823600769,-0.046863317489624,-2.15727233886719,2.32841567009226
1.958067813,0.886511743068695,0.0414791107177734,-1.61015510559082,1.83853829203659
1.966002383,0.788281619548798,0.122177600860596,-1.36163425445557,1.57808843883266
1.973906436,0.526791930198669,0.231128215789795,-1.14832973480225,1.28436411102444
1.981841006,0.31041944026947,0.413676977157593,-0.917429924011231,1.05316975640146
1.989714541,0.221973285079002,0.68401312828064,-0.802816390991211,1.07780344061113
1.997618594,0.115566730499268,0.866677284240723,-0.696372985839844,1.11777480720611
2.005583682,0.0301402509212494,0.98401665687561,-0.512073516845703,1.10969207548264
2.013457217,0.0474130064249039,1.07076549530029,-0.288610458374023,1.10999222330014
2.02136127,0.13630199432373,1.13853788375855,-0.013890266418457,1.146751797867
2.029265323,0.284643679857254,1.17999029159546,0.154143333435059,1.22358460270824
2.037138858,0.498920053243637,1.21457242965698,0.349459648132324,1.35876026291773
2.045073428,0.642542779445648,1.12684011459351,0.577067375183106,1.41973117975748
2.052977481,0.716971278190613,1.00959444046021,0.734251976013184,1.43960227571288
2.060912051,0.850475609302521,0.930002927780151,0.870346069335938,1.53157320690415
2.068755069,0.805446267127991,0.76841402053833,0.941449165344238,1.45791986306438
2.076720157,0.901338338851929,0.712927579879761,0.984115600585938,1.51299704248032
2.084654727,0.933130323886871,0.604352474212647,1.01886081695557,1.50799584839333
2.092497745,0.850053489208221,0.479446649551392,0.978363037109375,1.38190240489805
2.100462832,0.653008103370667,0.381580829620361,0.893640518188477,1.17073348305654
2.108336368,0.455573379993439,0.319385528564453,0.833511352539063,1.00214539625073
2.116270938,0.294595241546631,0.32156777381897,0.896126747131348,0.996611928698938
2.124205508,0.260282933712006,0.295102596282959,1.11960792541504,1.18674119106351
2.132079043,0.274125814437866,0.179922342300415,1.5231466293335,1.5580412914458
2.140013614,0.276172697544098,0.21084475517273,1.89589405059814,1.92747013485192
2.147917666,0.381605565547943,0.325661420822144,2.21726036071777,2.27330633128916
2.155791202,0.43530461192131,0.355813503265381,2.39667701721191,2.4617380199968
2.163725772,0.443592190742493,0.206985950469971,2.57583808898926,2.62193803818235
2.171599307,0.243350893259048,-0.10211181640625,2.70946407318115,2.72228617969514
2.179533877,-0.0690781027078629,-0.437045097351074,2.71121406555176,2.74708243608342
2.187407413,-0.295636922121048,-0.725180625915527,2.59750652313232,2.71299249310414
2.195403018,-0.363005757331848,-0.859207630157471,2.52314567565918,2.6900325336647
2.203307071,-0.383003950119019,-0.903587818145752,2.3899507522583,2.58360747195238
2.211211123,-0.418300628662109,-0.932307481765747,2.30559921264648,2.52189618855567
2.219145694,-0.566562235355377,-1.02629613876343,2.26749801635742,2.55261116998975
2.227049747,-0.667766213417053,-1.11182522773743,2.26761913299561,2.6123100093868
2.235014834,-0.735300898551941,-1.17409062385559,2.2397346496582,2.63354656410637
2.242979922,-0.854238390922546,-1.26402044296265,2.2487268447876,2.7173964251139
2.250883975,-0.95979642868042,-1.30189085006714,2.2640552520752,2.78245847308554
2.258818545,-1.13208949565887,-1.364098072052,2.24119281768799,2.85750510452972
2.26669208,-1.2685718536377,-1.37262535095215,2.16381740570068,2.85927974621783
2.274657168,-1.36222410202026,-1.36925888061523,2.01086139678955,2.78820514728867
2.282622256,-1.3715626001358,-1.31192660331726,1.79471206665039,2.61214983888049
2.290495791,-1.36830568313599,-1.23647093772888,1.58235740661621,2.43001559349391
2.298430362,-1.34583795070648,-1.17650175094605,1.32352256774902,2.22421854746378
2.306303897,-1.24870872497559,-1.14491534233093,0.99937629699707,1.96694117958176
2.314268985,-1.06467187404633,-1.12573909759521,0.563786506652832,1.64883896737177
2.322234073,-0.915236532688141,-1.1301760673523,0.337249755859375,1.49288085653548
2.330138125,-0.787800192832947,-1.19561672210693,0.14466667175293,1.43911672074416
2.338103213,-0.713705897331238,-1.25078129768372,-0.0960159301757813,1.44327718105992
2.345976748,-0.6626216173172,-1.25624132156372,-0.246345520019531,1.44149081890032
2.353941836,-0.727663040161133,-1.25690460205078,-0.44542407989502,1.51911332349608
2.361906924,-0.887750625610352,-1.22610402107239,-0.626362800598145,1.63821933871341
2.369810977,-1.16798579692841,-1.17173433303833,-0.839177131652832,1.85509310476222
2.377776065,-1.39106166362762,-1.08083748817444,-0.987550735473633,2.01953427378497
2.385680118,-1.51357400417328,-0.932171821594238,-1.05461025238037,2.06689461644982
2.393614688,-1.56058490276337,-0.743765354156494,-1.15572357177734,2.07949732270524
2.401549258,-1.54650819301605,-0.62872838973999,-1.27391195297241,2.09996158132876
2.409453311,-1.47593343257904,-0.563594579696655,-1.42336893081665,2.1264988739433
2.417357364,-1.3229832649231,-0.528312921524048,-1.5972785949707,2.14025656692543
2.425261416,-1.04922688007355,-0.518454551696777,-1.77872514724731,2.1292100219316
2.433195987,-0.726393520832062,-0.512413501739502,-1.81686592102051,2.02267568305881
2.441161075,-0.30545499920845,-0.581659078598023,-1.75249862670898,1.87159864203675
2.449065127,0.0980558842420578,-0.638504505157471,-1.53017377853394,1.66094393404886
2.456999698,0.388395071029663,-0.710431814193726,-1.33141088485718,1.55827437832203
2.46490375,0.654934942722321,-0.750278472900391,-1.17513084411621,1.540386336894
2.472868838,0.734465062618256,-0.700719118118286,-1.07723808288574,1.48016488876161
2.480833926,0.701426684856415,-0.585572957992554,-1.1407585144043,1.46158307035444
2.488707461,0.482123196125031,-0.513833522796631,-1.36043643951416,1.53207538043968
2.496611514,0.147044524550438,-0.423405408859253,-1.7409725189209,1.79774290266693
2.504454532,-0.0948840528726578,-0.316709756851196,-2.0405158996582,2.06712679590107
2.512328067,-0.20568872988224,-0.166372776031494,-2.30821704864502,2.32332815113589
2.520293155,-0.241302266716957,0.0174465179443359,-2.5064525604248,2.51810158702368
2.52816669,-0.291961163282394,0.0982260704040527,-2.61216735839844,2.63026766509694
2.53610126,-0.377173334360123,0.126955032348633,-2.5849347114563,2.61538998370848
2.544005313,-0.414649873971939,0.125674724578857,-2.50394821166992,2.54115825975241
2.551970401,-0.377150326967239,0.096977710723877,-2.27590656280518,2.30898196790889
2.559904971,-0.259700447320938,0.0797252655029297,-2.0207142829895,2.03889348759958
2.567809024,-0.113399662077427,0.0785732269287109,-1.6201057434082,1.62596920486629
2.575774112,0.0727882459759712,0.0926079750061035,-1.22696924209595,1.23261019257367
2.583647647,0.0955169424414635,0.125056028366089,-0.850312232971191,0.864750478499156
2.591521182,0.119949892163277,0.215006828308105,-0.558981895446777,0.610800026429571
2.599455752,0.0908282697200775,0.303739786148071,-0.307024955749512,0.441329758482939
2.607359805,0.0452756024897099,0.445423126220703,-0.0653829574584961,0.452467206191841
2.615294375,-0.0996013581752777,0.468321323394775,0.0695686340332031,0.483823405115792
2.623198428,-0.326111495494843,0.524188041687012,-0.0570840835571289,0.619984195876882
2.631132998,-0.477019041776657,0.557437419891357,-0.282073020935059,0.786033607711581
2.639067569,-0.689638555049896,0.621714353561401,-0.521941184997559,1.06515382674628
2.646941104,-0.787835776805878,0.698867559432983,-0.678896903991699,1.25299723985835
2.654875674,-0.714413940906525,0.77995753288269,-0.770806312561035,1.3087640748225
2.662779727,-0.513994932174683,0.846970558166504,-0.687941551208496,1.20615649672059
2.670714297,-0.238826140761375,0.858795166015625,-0.443008422851563,0.995401188164956
2.678648868,0.12362477183342,0.826641082763672,0.0169687271118164,0.836006280851619
2.686522403,0.326550990343094,0.774214506149292,0.462197303771973,0.958994264028794
2.694487491,0.323479294776917,0.706834077835083,0.835897445678711,1.14148053309311
2.702391543,0.183351591229439,0.608241319656372,0.942431449890137,1.13655283497324
2.710265079,-0.00480988621711731,0.511846542358398,0.903998374938965,1.03885662139776
2.718260684,-0.138918861746788,0.482331991195679,0.833175659179688,0.972689199554163
2.726134219,-0.158098846673965,0.525185108184815,0.753679275512695,0.932119677678824
2.734068789,-0.177394360303879,0.504398584365845,0.688297271728516,0.87157318983939
2.741972842,-0.257857173681259,0.428920030593872,0.806264877319336,0.948960361164943
2.74993793,-0.344021081924439,0.30790638923645,1.02529811859131,1.12445234729088
2.757903018,-0.332224428653717,0.233705759048462,1.36049556732178,1.41983789268667
2.765807071,-0.314782291650772,0.133319616317749,1.75962734222412,1.79252626054258
2.773741641,-0.222272783517838,0.0247056484222412,2.15854167938232,2.17009625154909
2.781584659,-0.070997416973114,-0.00713229179382324,2.38298892974854,2.38405699221037
2.789458194,0.219277113676071,0.0290513038635254,2.53525733947754,2.54488825063361
2.797392764,0.480863571166992,0.109715700149536,2.60908317565918,2.65529326561918
2.805266299,0.825129210948944,0.249889373779297,2.4448766708374,2.5924322265961
2.81320087,1.01513826847076,0.339910984039307,2.15852737426758,2.4094160302129
2.821104922,1.32121860980988,0.453758001327515,1.86405754089355,2.32942599247944
2.82907001,1.49546313285828,0.488525867462158,1.77108478546143,2.36892566835916
2.837035098,1.50333368778229,0.450177431106567,1.81082725524902,2.39619849859137
2.844908633,1.22115278244019,0.325877904891968,1.89372158050537,2.27675030502467
2.852843204,0.730115473270416,0.0284528732299805,2.05963897705078,2.18540405556746
2.860716739,-0.0379524827003479,-0.438546419143677,2.38933944702148,2.42954858889049
2.868651309,-0.492347478866577,-0.767987728118897,2.84777641296387,2.99032467948229
2.876616397,-0.670464754104614,-0.986590623855591,3.46047878265381,3.66030018588278
2.884459414,-0.625508844852448,-1.09948706626892,3.91522884368897,4.11450483318896
2.892363467,-0.4858638048172,-1.24974918365479,4.24757194519043,4.45418949848859
2.900237002,-0.228794604539871,-1.28248405456543,4.40017890930176,4.58897447749986
2.908110538,0.0905076265335083,-1.26803112030029,4.25956535339356,4.44522120398316
2.916045108,0.521819710731506,-1.26340842247009,3.71636962890625,3.95978533144577
2.923918643,0.854666829109192,-1.29813981056213,3.05313682556152,3.42596947332368
2.931853213,1.15898513793945,-1.37692141532898,2.21506977081299,2.85406608604734
2.939757266,1.30897855758667,-1.39401054382324,1.50746726989746,2.43498415401911
2.947722354,1.44502830505371,-1.31920313835144,0.801694869995117,2.11450192414648
2.955656924,1.51939392089844,-1.20404624938965,0.275668144226074,1.95813129878296
2.963560977,1.46999299526215,-1.06193828582764,-0.285255432128906,1.83574589488452
2.971526065,1.18395781517029,-1.02822804450989,-0.845680236816406,1.78162400145521
2.9793996,0.886467158794403,-1.06151270866394,-1.16036128997803,1.8052898874019
2.987303653,0.527870297431946,-1.12697887420654,-1.41738653182983,1.88619007908306
2.995238223,0.319027602672577,-1.15158677101135,-1.44867181777954,1.87791925759976
3.003111758,0.169584333896637,-1.11749792098999,-1.27042865753174,1.70045565175867
3.011046329,0.11569356918335,-1.05315184593201,-1.05906581878662,1.49804346434359
3.018950381,0.105632662773132,-0.995654344558716,-0.853686332702637,1.31577588818403
3.026915469,0.0630465745925903,-1.02816009521484,-0.646240234375,1.21602405094846
3.034880557,0.0544937252998352,-1.08974933624268,-0.526989936828613,1.21171018624795
3.042754092,0.105883419513702,-1.18296003341675,-0.418299674987793,1.25919829942871
3.050688663,0.197837054729462,-1.21266627311707,-0.422883987426758,1.29943443736174
3.058592715,0.22802460193634,-1.20582342147827,-0.545358657836914,1.34291526484416
3.066496768,0.240725100040436,-1.19352197647095,-0.722671508789063,1.41587336712153
3.074461856,0.192223012447357,-1.15002942085266,-0.893416404724121,1.46891464271115
3.082365909,0.141593158245087,-1.12061190605164,-1.06738567352295,1.55406944583842
3.090269961,0.151521146297455,-1.02131175994873,-1.28076553344727,1.64511298105976
3.098112979,0.264132022857666,-0.888242721557617,-1.45293235778809,1.72329721586458
3.105986514,0.384045541286469,-0.79201602935791,-1.50520324707031,1.74367920889506
3.113951602,0.480611383914948,-0.739497184753418,-1.50699853897095,1.74610652168401
3.121855655,0.486044406890869,-0.745416641235352,-1.50122022628784,1.74514965040715
3.129790225,0.416683554649353,-0.783270120620728,-1.59325170516968,1.82361954985093
3.13766376,0.25524640083313,-0.850996255874634,-1.71828365325928,1.93438467366472
3.145628848,0.127609670162201,-0.862100124359131,-1.79496431350708,1.99534401522717
3.153563418,0.0952568650245667,-0.749094963073731,-1.7180700302124,1.87669437116191
3.161467471,0.0450367331504822,-0.638621091842651,-1.66977453231812,1.78829868731634
3.169402041,-0.0892182588577271,-0.516719102859497,-1.63800382614136,1.71988809619325
3.177306094,-0.273918598890305,-0.405525684356689,-1.5291600227356,1.60555686745245
3.185271182,-0.465528517961502,-0.287961959838867,-1.4607081413269,1.55990613996111
3.193205752,-0.484433770179749,-0.171669960021973,-1.40373659133911,1.4948655694506
3.201079288,-0.386382639408112,-0.0151526927947998,-1.23640584945679,1.29546152884054
3.209013858,-0.243836760520935,0.116296529769897,-1.14516115188599,1.17659479533385
3.216887393,-0.0948324203491211,0.158015489578247,-1.00071716308594,1.0175445559732
3.224852481,0.135191977024078,0.150937557220459,-0.786428451538086,0.812113739706422
3.232817569,0.295244932174683,0.153973817825317,-0.593040466308594,0.680128297624831
3.240721622,0.548989832401276,0.17962384223938,-0.384907722473145,0.694124279650468
3.248656192,0.72213339805603,0.17933177947998,-0.250367164611816,0.785060665703719
3.256560245,0.900191426277161,0.236027002334595,-0.0453462600708008,0.931724011215968
3.264525332,1.02790236473084,0.293959140777588,0.096400260925293,1.07344690514827
3.27249042,0.998661816120148,0.377012014389038,0.234881401062012,1.09299256838047
3.280394473,0.77264016866684,0.519562959671021,0.23340892791748,0.95989490410733
3.288298526,0.54013866186142,0.649274110794067,0.178506851196289,0.863233074498936
3.296202579,0.474168002605438,0.841861248016357,0.292351722717285,1.00947272641823
3.304167666,0.504057049751282,1.04115533828735,0.404498100280762,1.22543733457854
3.312132754,0.526054859161377,1.17754602432251,0.526902198791504,1.39318853043526
3.320006289,0.507253527641296,1.21170377731323,0.64935302734375,1.46532983979041
3.327971377,0.53961592912674,1.26712894439697,0.727895736694336,1.55776548818931
3.335844913,0.448405623435974,1.17587566375732,0.717000961303711,1.44839275000125
3.34381,0.167166173458099,0.931571960449219,0.818477630615234,1.25126994643896
3.351744571,-0.271480202674866,0.551828861236572,1.14191627502441,1.29699243317132
3.359618106,-0.583205223083496,0.307463645935059,1.64747905731201,1.77449978024378
3.367583194,-0.807592153549194,0.178257942199707,2.41578960418701,2.55343306004476
3.375456729,-0.900927841663361,0.116406917572021,3.26843070983887,3.39232381286938
3.383360782,-0.951305985450745,0.0793600082397461,4.07285785675049,4.18323465874871
3.391295352,-1.05642640590668,0.0170583724975586,4.45095634460449,4.57464098271593
3.399199405,-1.16948318481445,-0.108458995819092,4.40161323547363,4.55561777896637
3.407164493,-1.37546956539154,-0.441754102706909,3.85691452026367,4.11859840591402
3.415038028,-1.47415006160736,-0.788087129592896,3.09508419036865,3.51763356156336
3.423003116,-1.32359552383423,-1.04797649383545,2.184739112854,2.76102242540327
3.430968204,-1.03175497055054,-1.03508591651917,1.68984031677246,2.23416236429265
3.438933291,-0.704420387744904,-0.691315174102783,1.43902111053467,1.74496604814531
3.446898379,-0.525983452796936,-0.197796821594238,1.33384799957275,1.44738822062818
3.454771914,-0.454790264368057,0.171198844909668,1.39443874359131,1.47668637113332
3.462737002,-0.691102623939514,0.328927993774414,1.71226692199707,1.87554644679087
3.470671573,-1.17035186290741,0.162962913513184,2.07678890228272,2.38942096308629
3.478545108,-1.82642304897308,-0.335935354232788,2.40523242950439,3.03871959153576
3.486479678,-2.23442649841309,-0.769701480865479,2.69579601287842,3.58502695798905
3.494353213,-2.32841348648071,-1.18468570709229,2.87671375274658,3.88593252693036
3.502318301,-2.02034759521484,-1.46935129165649,2.90964794158936,3.83495094724537
3.510283389,-1.59998285770416,-1.57035446166992,2.87038898468018,3.64212729096707
3.518187442,-1.09626531600952,-1.58336281776428,2.61889457702637,3.250760566597
3.526122012,-0.600347638130188,-1.4904351234436,2.34730529785156,2.84458367869972
3.534026065,-0.212357729673386,-1.33489632606506,1.89054679870605,2.32405060288965
3.5418996,-0.0894192159175873,-1.23370623588562,1.40621471405029,1.87282318830421
3.54983417,-0.159274190664291,-1.13990163803101,0.660403251647949,1.32698020595061
3.557707705,-0.21913468837738,-1.0329487323761,-0.155942916870117,1.06738994219058
3.565642276,-0.225430727005005,-0.908997774124146,-0.751362800598145,1.2006839818051
3.573546329,-0.162246629595757,-0.770556449890137,-1.32658767700195,1.54269766190784
3.581480899,-0.169805064797401,-0.724566459655762,-1.77045011520386,1.92050095675953
3.589384952,-0.339884579181671,-0.722492933273315,-2.25427055358887,2.39149603691356
3.597289004,-0.552202582359314,-0.747253656387329,-2.54779672622681,2.71193360485108
3.605223575,-0.832158029079437,-0.83099627494812,-2.6605339050293,2.90886274240458
3.613127627,-0.961756229400635,-0.885431051254273,-2.57905864715576,2.8914540800063
3.621092715,-1.02835118770599,-0.925859689712524,-2.29198789596558,2.67729916997403
3.629088321,-1.09671556949615,-0.939154624938965,-1.86303997039795,2.35705629572565
3.636961856,-1.0684506893158,-0.996488332748413,-1.50468158721924,2.09729410234228
3.644896426,-1.10273659229279,-1.07649445533752,-1.15342950820923,1.924907253548
3.652800479,-1.04815268516541,-1.07564353942871,-0.803644180297852,1.70337225639635
3.660765567,-0.8461012840271,-0.974520206451416,-0.41264820098877,1.3549374721343
3.66866962,-0.567504525184631,-0.835367441177368,-0.111149787902832,1.01599922403273
3.676543155,-0.345965206623077,-0.684751749038696,0.0932302474975586,0.772831651172335
3.684508243,-0.113814294338226,-0.584213018417358,0.23121166229248,0.638527507053597
3.692381778,-0.0383483022451401,-0.520504236221314,0.106804847717285,0.532731196482175
3.700377383,-0.066677138209343,-0.488041639328003,-0.265092849731445,0.559378853243927
3.708311954,-0.140840843319893,-0.499171018600464,-0.81887149810791,0.969308196277725
3.716216006,-0.200978130102158,-0.461040019989014,-1.47485494613647,1.55825133433412
3.724181094,-0.0927367508411408,-0.368576526641846,-2.03059148788452,2.0658534680894
3.732085147,-0.0251611769199371,-0.271700382232666,-2.4488353729248,2.46399043549628
3.740050235,0.0729164034128189,-0.24321174621582,-2.85313177108765,2.86440738348681
3.747984805,0.154089838266373,-0.197413921356201,-2.98563623428345,2.99612076827161
3.75585834,0.202990055084229,-0.120398044586182,-3.00031232833862,3.00958048890273
3.763792911,0.206806540489197,-0.0500574111938477,-2.91260671615601,2.92036856793823
3.771696963,0.23958645761013,0.0184957981109619,-2.67372179031372,2.68449845915701
3.779662051,0.274508714675903,0.035886287689209,-2.23278093338013,2.24987856484366
3.787627139,0.246690735220909,0.0294740200042725,-1.79752779006958,1.81461599044301
3.795500674,0.2058025598526,0.0601544380187988,-1.44313097000122,1.45897232551954
3.803435245,0.135765582323074,0.135700941085815,-1.24793577194214,1.26261266018044
3.811339297,-0.0717864483594894,0.223371028900146,-1.13473987579346,1.15874177297435
3.81924335,-0.364399641752243,0.265343189239502,-1.23899984359741,1.31845163711809
3.827208438,-0.625728130340576,0.304410696029663,-1.31730270385742,1.48979460951732
3.835112491,-0.767496526241303,0.360898494720459,-1.37966299057007,1.61949640593386
3.843047061,-0.832020103931427,0.457632303237915,-1.35713243484497,1.65634936653507
3.850920596,-0.852712571620941,0.487077474594116,-1.3407621383667,1.66192849056
3.858885684,-0.813087582588196,0.491210460662842,-1.24962329864502,1.56969981911835
3.866820254,-0.56002688407898,0.492105960845947,-0.976176261901856,1.22829901973909
3.874693789,-0.262359440326691,0.4979248046875,-0.568693161010742,0.800108429171953
3.88262836,0.0163234174251556,0.467383623123169,-0.220901489257813,0.51721501629061
3.890501895,0.178487494587898,0.375098705291748,0.0246496200561523,0.416130301954476
3.89837543,0.263856381177902,0.285642147064209,0.232656478881836,0.453145300354581
3.906371036,0.354532241821289,0.208152770996094,0.51107120513916,0.655907358768428
3.914244571,0.475616335868835,0.139500856399536,0.765219688415527,0.911719561828229
3.922148623,0.430618226528168,0.0849153995513916,1.00454711914063,1.09624705093011
3.930052676,0.312947243452072,-0.00803279876708984,1.20215129852295,1.24224323205268
3.937987247,0.0938029736280441,-0.129860401153564,1.45675373077393,1.46553544951085
3.945921817,-0.0693379566073418,-0.20313286781311,1.70782375335693,1.72125904115058
3.953795352,-0.221147283911705,-0.280744314193726,1.98074722290039,2.01273024823528
3.961729922,-0.213914632797241,-0.319111347198486,2.14558219909668,2.17970513948932
3.969633975,-0.215341150760651,-0.373915910720825,2.3319149017334,2.37149995328429
3.977568545,-0.203254267573357,-0.442751407623291,2.32668209075928,2.37713917507982
3.985533633,-0.124370262026787,-0.453975677490234,2.2808837890625,2.32894670120152
3.993407168,0.0986667722463608,-0.368385791778564,2.24442577362061,2.27659620416584
4.001372256,0.321495831012726,-0.262475490570068,2.18618679046631,2.22523383834552
4.009245791,0.518249571323395,-0.135879516601563,2.14915180206299,2.21492648399881
4.017119327,0.70378977060318,-0.00630784034729004,2.19258975982666,2.30278303036831
4.025053897,0.912710666656494,0.109011888504028,2.27355480194092,2.45234087970909
4.032896914,0.972381770610809,0.178513526916504,2.34669494628906,2.54644272624518
4.040831485,0.939470648765564,0.211369037628174,2.31874370574951,2.5107477656891
4.048735538,0.915786743164063,0.229462146759033,2.26847362518311,2.45708990960886
4.056700625,0.835748791694641,0.278627872467041,2.23870849609375,2.4058107291757
4.064665713,0.632601380348206,0.233110904693604,2.20013904571533,2.30111647266858
4.072539248,0.396807670593262,0.135045051574707,2.15072250366211,2.19118707123675
4.080504336,0.193622291088104,-0.0252711772918701,2.25817394256592,2.26660048947573
4.088408389,0.0880338549613953,-0.208470344543457,2.44538116455078,2.45582957147135
4.096281924,0.0319692492485046,-0.410634279251099,2.7008113861084,2.73203672880259
4.104216495,0.162518858909607,-0.662464141845703,2.88783931732178,2.96730299116928
4.11209003,0.344345986843109,-0.837176561355591,2.96344470977783,3.09861957998208
4.1200246,0.65873509645462,-1.02833724021912,2.99119472503662,3.23089078893259
4.127928653,1.00267839431763,-1.1509153842926,2.94641208648682,3.31833005706611
4.135863223,1.31650197505951,-1.24521851539612,2.7700080871582,3.31008933479789
4.143828311,1.50782418251038,-1.34309339523315,2.54833602905273,3.25137665468802
4.151671329,1.67596197128296,-1.40051054954529,2.27467155456543,3.15347570304948
4.159605899,1.71896648406982,-1.44549775123596,1.93744564056396,2.96614314090266
4.167479434,1.69744753837585,-1.39560103416443,1.45616817474365,2.6361821153394
4.175444522,1.62313830852509,-1.25407361984253,0.930792808532715,2.25247727291594
4.183348575,1.40921711921692,-1.1512303352356,0.485323905944824,1.88328528575525
4.191252627,1.02042365074158,-0.971584320068359,-0.0631303787231445,1.41039922104105
4.199187198,0.698713302612305,-0.878042221069336,-0.495104789733887,1.22649385405929
4.207030215,0.413761675357819,-0.857452869415283,-0.871688842773438,1.29083910146815
4.21490375,0.248813152313232,-0.862561464309692,-0.995545387268066,1.34053380508917
4.222868838,0.175310134887695,-0.92414665222168,-0.976066589355469,1.35553925249802
4.230772891,0.240698635578156,-0.954970598220825,-0.860612869262695,1.30788347622256
4.238676944,0.359005093574524,-1.0050733089447,-0.734572410583496,1.29562866592089
4.246580997,0.453843891620636,-1.08493876457214,-0.702090263366699,1.36967044895734
4.254546084,0.566041529178619,-1.11355090141296,-0.666470527648926,1.41583247138111
4.262480655,0.699053406715393,-1.06268620491028,-0.596497535705566,1.40491528059518
4.270384707,0.718105733394623,-0.993262052536011,-0.622889518737793,1.37485879343869
4.278349795,0.709515869617462,-0.938621997833252,-0.745808601379395,1.39307375754014
4.28622333,0.580435991287231,-0.909046411514282,-0.888484954833984,1.39738213572198
4.294157901,0.399801254272461,-0.866333961486816,-1.14905166625977,1.49355124032543
4.302092471,0.181777596473694,-0.791980981826782,-1.41714477539063,1.63357775590022
4.309996524,0.0021902322769165,-0.755348682403565,-1.69344139099121,1.85426540005698
4.317931094,-0.114991664886475,-0.699671506881714,-1.98557472229004,2.10838096138546
4.325774112,-0.12761789560318,-0.647214889526367,-2.19576597213745,2.2927192686632
4.3337392,-0.0267443060874939,-0.606092214584351,-2.37718820571899,2.45338272511595
4.34167377,0.134454369544983,-0.578054666519165,-2.39357852935791,2.4660582619187
4.349547305,0.318426787853241,-0.497687578201294,-2.36019515991211,2.43302481236648
4.357481875,0.509286820888519,-0.4984450340271,-2.21028470993042,2.32232190206896
4.365355411,0.681096315383911,-0.543033838272095,-1.93409252166748,2.12120056164148
4.373289981,0.71638298034668,-0.54604434967041,-1.52670192718506,1.77262172524426
4.381224551,0.693779528141022,-0.53992223739624,-1.24174308776855,1.52143746244252
4.389128604,0.637205839157105,-0.495198965072632,-0.927769660949707,1.22963809319801
4.397063174,0.462148785591126,-0.430035352706909,-0.696730613708496,0.94018373346901
4.404936709,0.230000078678131,-0.305041074752808,-0.591157913208008,0.703859198864901
4.412810245,0.152227401733398,-0.178176403045654,-0.662510871887207,0.7027379794842
4.42080585,0.00875204801559448,0.0555198192596436,-0.767531394958496,0.769586571427819
4.428648868,-0.0349844098091126,0.270284652709961,-0.906477928161621,0.946562167353218
4.436583438,0.00108784437179565,0.566698789596558,-1.0706148147583,1.21134833269194
4.444456973,-0.0122495889663696,0.783786773681641,-1.21022081375122,1.44191059953965
4.452422061,-0.0665197372436523,0.828376531600952,-1.25215435028076,1.50283833810468
4.460387149,0.0808932185173035,0.799302816390991,-1.02675724029541,1.30370975895393
4.468230166,0.316947519779205,0.773550748825073,-0.652545928955078,1.06049643125183
4.476195254,0.612371325492859,0.693135499954224,-0.181344985961914,0.942508071857318
4.484068789,0.756048738956451,0.617832899093628,0.248811721801758,1.00758843769966
4.492033877,0.844449162483215,0.576189994812012,0.650859832763672,1.21190256210853
4.49993793,0.913398802280426,0.600360870361328,0.899269104003906,1.41542059759081
4.507811465,0.946316301822662,0.671463251113892,0.970319747924805,1.51257986695071
4.515715518,0.91148978471756,0.763232946395874,0.883232116699219,1.48102570203139
4.523589053,0.851667284965515,0.858142375946045,0.825284004211426,1.46384397709664
4.531462588,0.786777794361115,0.979546308517456,0.608175277709961,1.39585365875062
4.539427676,0.667802691459656,1.05010628700256,0.389311790466309,1.30393532006735
4.547331729,0.458037585020065,1.00823163986206,0.153082847595215,1.11792836404566
4.555266299,0.375101119279861,0.959842681884766,0.15097713470459,1.04153392592673
4.563170352,0.341617345809937,0.862271308898926,0.552512168884277,1.07957580459813
4.57113544,0.215402841567993,0.712275505065918,1.09340572357178,1.32260003614547
4.579039493,0.237509459257126,0.566878318786621,1.5929126739502,1.7073759276674
4.586943545,0.258835524320602,0.423578977584839,2.17529296875,2.23121367842601
4.594878116,0.241820067167282,0.274457216262817,2.57148170471191,2.59736825770079
4.602782168,0.209071129560471,0.0619909763336182,2.83532619476318,2.84369974664569
4.610747256,0.25182455778122,-0.12773323059082,2.92013645172119,2.93375668431615
4.618742862,0.220077365636826,-0.311545848846436,3.00559520721436,3.02970252870294
4.626616397,0.148709163069725,-0.405639171600342,2.97682571411133,3.00801410982594
4.634550967,0.01108618080616,-0.48990273475647,2.87625885009766,2.91770330323215
4.642424502,-0.363299489021301,-0.615923166275024,2.71786403656006,2.81036168254265
4.65038959,-0.819992899894714,-0.809077024459839,2.59706783294678,2.84108347577353
4.658354678,-1.43081247806549,-1.00808262825012,2.49656009674072,3.04897806640285
4.666258731,-1.89531695842743,-1.15572094917297,2.47775077819824,3.3267350667166
4.674193301,-2.29576969146729,-1.28429007530212,2.55309772491455,3.66582425475406
4.682066836,-2.56914830207825,-1.44930601119995,2.73234272003174,4.02078445727725
4.690001407,-2.67636680603027,-1.57462906837463,2.87434959411621,4.2313451256766
4.697935977,-2.72361016273499,-1.74185812473297,2.98490524291992,4.40020242198724
4.705809512,-2.66852188110352,-1.86916375160217,2.96655941009522,4.40627471838244
4.713744082,-2.57719612121582,-2.00077819824219,2.93702697753906,4.38989529630985
4.721648135,-2.43360877037048,-2.10534048080444,2.89227962493897,4.32668367415219
4.729643741,-2.15920758247376,-2.10166454315186,2.78454875946045,4.10278966435846
4.737578311,-1.89899480342865,-2.04495716094971,2.56598377227783,3.79108213748551
4.745482364,-1.64935684204102,-1.98187017440796,2.28095054626465,3.44251692444646
4.753416934,-1.38463819026947,-1.89890217781067,1.90728950500488,3.02668228506868
4.761290469,-1.23514592647553,-1.82513463497162,1.45708465576172,2.64193065569827
4.769225039,-1.12235128879547,-1.72681355476379,0.805769920349121,2.21152043465943
4.77715961,-1.12281715869904,-1.66469669342041,0.195528984069824,2.01746500256267
4.785063663,-1.22391533851624,-1.54830884933472,-0.394271850585938,2.01262995628803
4.79302875,-1.39967596530914,-1.41828846931458,-0.914206504821777,2.19235228088763
4.800932803,-1.55297875404358,-1.2443106174469,-1.35378932952881,2.40682310773931
4.808897891,-1.71097111701965,-1.08796358108521,-1.69306993484497,2.64150955351655
4.816832461,-1.78741478919983,-0.97288179397583,-1.85859251022339,2.75603278876692
4.824736514,-1.77430808544159,-0.88657021522522,-1.87744760513306,2.73111432177559
4.832640567,-1.54395854473114,-0.842023611068726,-1.66484975814819,2.42168050466027
4.84054462,-1.10012757778168,-0.784379482269287,-1.19821214675903,1.80589152726339
4.848509707,-0.621549129486084,-0.759105920791626,-0.677724838256836,1.19242445284222
4.856444278,-0.353890538215637,-0.810333013534546,-0.444483757019043,0.989668589031851
4.864317813,-0.161081448197365,-0.897231101989746,-0.420186042785645,1.00375654114081
4.872221866,-0.0797881856560707,-0.940802812576294,-0.594427108764648,1.11571487144165
4.880125918,-0.031210333108902,-0.897048234939575,-0.983478546142578,1.33150278686291
4.887999454,-0.0633809491991997,-0.809153318405151,-1.34705924987793,1.57267760844019
4.895934024,-0.0633534863591194,-0.70186448097229,-1.81589698791504,1.9478473463296
4.903807559,-0.120575904846191,-0.574809789657593,-2.07975292205811,2.16109163617023
4.911742129,-0.188415944576263,-0.379812717437744,-2.30959367752075,2.34818679489981
4.919615664,-0.295651018619537,-0.272576570510864,-2.42488718032837,2.45800434273886
4.927580752,-0.418279826641083,-0.191475629806519,-2.43342113494873,2.47652162320458
4.935515323,-0.488730162382126,-0.1720290184021,-2.39516496658325,2.45056450066963
4.943388858,-0.443699538707733,-0.131601333618164,-2.38953733444214,2.43394265839448
4.951353946,-0.34647661447525,-0.0959148406982422,-2.41107177734375,2.43772697744189
4.959227481,-0.129909187555313,-0.0895564556121826,-2.29431772232056,2.29973706468963
4.967162051,0.114859946072102,-0.0819568634033203,-2.14919948577881,2.15382640069772
4.975096622,0.234632432460785,-0.111795425415039,-1.97316026687622,1.99020401825673
4.983000674,0.378623217344284,-0.141574382781982,-1.71807098388672,1.76498349914262
4.990904727,0.483765602111816,-0.11443829536438,-1.37658309936523,1.46359362894572
4.998747745,0.544793963432312,0.00401520729064941,-1.02724838256836,1.16277935308948
5.00662128,0.475756794214249,0.102388620376587,-0.84919548034668,0.978754780660032
5.014586368,0.290543764829636,0.157943248748779,-0.868325233459473,0.929166540599232
5.02249042,-0.00922776758670807,0.179241180419922,-0.873498916625977,0.891747110900684
5.030424991,-0.232589438557625,0.279920339584351,-0.993448257446289,1.05801355552027
5.038298526,-0.42916014790535,0.438597440719605,-1.19792413711548,1.34594516449958
5.046263614,-0.614589869976044,0.530319452285767,-1.45407676696777,1.66532239340774
5.054198184,-0.666104733943939,0.649540185928345,-1.62579298019409,1.87317932514929
5.062102237,-0.511340260505676,0.735804319381714,-1.64996862411499,1.87757112222113
5.070036807,-0.341959267854691,0.763687372207642,-1.57010126113892,1.77914937921782
5.077910342,-0.0777492970228195,0.704800605773926,-1.309739112854,1.48936408941079
5.08587543,0.203944012522697,0.686905860900879,-0.909967422485352,1.15821998427262
5.09381,0.434662520885468,0.644949913024902,-0.376989364624023,0.864299067691828
5.101714053,0.53821474313736,0.595386266708374,-0.0115222930908203,0.802678440942212
5.109618106,0.517823338508606,0.524272203445435,0.335596084594727,0.809708024663854
5.117552676,0.361078590154648,0.438262224197388,0.586433410644531,0.816306113260636
5.125487247,0.177339255809784,0.431171655654907,0.752913475036621,0.885571515566689
5.133391299,-0.0257651507854462,0.365012407302856,0.906498908996582,0.977567477206569
5.141264834,-0.229970797896385,0.403893709182739,0.901914596557617,1.01462635274577
5.149229922,-0.492519319057465,0.435438394546509,0.725980758666992,0.979402847170035
5.157103457,-0.740922927856445,0.394347429275513,0.600976943969727,1.03230323412395
5.165068545,-0.808349132537842,0.389275074005127,0.611675262451172,1.08586832996045
5.173003116,-0.700380921363831,0.371920347213745,0.883050918579102,1.18686018742118
5.180907168,-0.580231070518494,0.270711898803711,1.19212818145752,1.35318979761679
5.188841739,-0.481154680252075,0.113901615142822,1.60123062133789,1.67583498798979
5.196684756,-0.455063372850418,0.0192203521728516,1.86340618133545,1.91826345737149
5.204588809,-0.430550217628479,-0.084108829498291,2.08327293395996,2.1289607564419
5.212523379,-0.406606256961823,-0.106520891189575,2.25193881988525,2.29083037280514
5.220427432,-0.299025058746338,-0.0350272655487061,2.49939632415772,2.51746397795543
5.228362002,-0.171772956848145,0.0641553401947022,2.64207649230957,2.64843162033583
5.236266055,-0.0360373258590698,0.180334568023682,2.72126388549805,2.72747069274727
5.244231143,0.157514542341232,0.317811965942383,2.68456840515137,2.70790007176817
5.252165713,0.319810032844543,0.351362705230713,2.65221309661865,2.69443287494986
5.260008731,0.626283586025238,0.328390121459961,2.61605548858643,2.70994788166863
5.268004336,0.767550945281982,0.214391231536865,2.55863475799561,2.67987124291194
5.275877872,0.892339527606964,-0.0106096267700195,2.48148822784424,2.63707531588303
5.283842959,1.06290984153748,-0.237698793411255,2.51196098327637,2.73792367116564
5.291838565,1.22198700904846,-0.531376838684082,2.60922241210938,2.9297875675255
5.299681582,1.28679311275482,-0.820214509963989,2.6440601348877,3.05280892855925
5.307585635,1.28628659248352,-1.16171979904175,2.68350124359131,3.19457430870602
5.315489688,1.27195763587952,-1.5396089553833,2.64290046691895,3.3125812957585
5.323485293,1.31684494018555,-1.67806887626648,2.53756237030029,3.31499902460778
5.331419864,1.42240786552429,-1.65462040901184,2.423020362854,3.26068098909247
5.339323916,1.4723151922226,-1.61633110046387,2.21228122711182,3.11037400956984
5.347258487,1.46308708190918,-1.58219695091248,1.98913955688477,2.9326860004934
5.355162539,1.39478158950806,-1.52382373809814,1.80400466918945,2.74260593481444
5.36309711,1.29949688911438,-1.41205286979675,1.49620246887207,2.43335309804765
5.371062198,0.973979294300079,-1.3718204498291,1.20716285705566,2.07069292164468
5.37896625,0.635497748851776,-1.36705160140991,0.914085388183594,1.7630200131036
5.386900821,0.323701322078705,-1.23062920570374,0.620807647705078,1.41585060062692
5.394804873,0.0552516579627991,-1.10648369789124,0.244803428649902,1.13458699009175
5.402769961,-0.244583249092102,-1.0458710193634,-0.147276878356934,1.08413912104455
5.410704532,-0.451832264661789,-1.03650498390198,-0.542020797729492,1.25390650457455
5.418608584,-0.464038997888565,-1.00205969810486,-0.844333648681641,1.39009177410108
5.426573672,-0.298446446657181,-0.969988584518433,-1.07997941970825,1.48199314526476
5.434447207,-0.0896391272544861,-0.945858716964722,-1.17908191680908,1.51423843965846
5.442412295,0.108491539955139,-0.999469041824341,-1.15724182128906,1.53294403444729
5.450346866,0.261915743350983,-1.05895709991455,-1.08502388000488,1.53859247894151
5.458220401,0.398287713527679,-1.13174200057983,-0.925653457641602,1.51535717976568
5.466093936,0.449720025062561,-1.16328573226929,-0.803508758544922,1.48361319787267
5.473967471,0.321097433567047,-1.23359870910645,-0.629621505737305,1.42172169479098
5.481871524,0.10983020067215,-1.30558300018311,-0.458697319030762,1.38816889240208
5.489836612,-0.0652645230293274,-1.2920994758606,-0.366687774658203,1.34470830947431
5.497710147,-0.211317360401154,-1.21846294403076,-0.264481544494629,1.26461751536237
5.505644717,-0.340918570756912,-1.16363501548767,-0.227755546569824,1.23375220775861
5.51354877,-0.577010214328766,-1.08442711830139,-0.364052772521973,1.2811937337999
5.52148334,-0.706820249557495,-1.03266310691834,-0.646279335021973,1.40842640434323
5.529417911,-0.716488003730774,-0.974184989929199,-1.06253910064697,1.60977662875852
5.537321963,-0.551774203777313,-0.876254558563232,-1.37511253356934,1.72139806649607
5.545287051,-0.333124220371246,-0.815047025680542,-1.69296455383301,1.90824589107474
5.553191104,-0.128309190273285,-0.746194124221802,-1.89698600769043,2.04250454900473
5.561064639,0.0193949937820435,-0.729123115539551,-2.07130002975464,2.19596914747441
5.568999209,0.18868225812912,-0.676273107528687,-2.18087005615234,2.29110028421305
5.576872745,0.374788761138916,-0.565904855728149,-2.08951807022095,2.19699810809946
5.584837832,0.500623941421509,-0.414870500564575,-1.84767913818359,1.95873940600632
5.592711368,0.54642379283905,-0.291202545166016,-1.66130113601685,1.77293523520253
5.600676455,0.410856783390045,-0.167245149612427,-1.41022682189941,1.47834837766036
5.608611026,0.0839264392852783,0.0137026309967041,-1.31919717788696,1.32193517369509
5.616484561,-0.261840105056763,0.141974210739136,-1.27497673034668,1.30930614451191
5.624449649,-0.700912833213806,0.221465349197388,-1.26326417922974,1.46156152357125
5.632323184,-1.06992816925049,0.324359893798828,-1.25528049468994,1.68097731942163
5.640288272,-1.25107407569885,0.379934549331665,-1.30153751373291,1.84486761159592
5.648222842,-1.27807784080505,0.499465227127075,-1.3208441734314,1.90462012242696
5.656096377,-1.14391016960144,0.619761466979981,-1.13895893096924,1.72912179978895
5.66400043,-1.02333188056946,0.693378686904907,-0.863801956176758,1.50802385947258
5.671873965,-0.662729740142822,0.771044969558716,-0.648769378662109,1.2060774271336
5.6797475,-0.244815558195114,0.782424688339233,-0.168051719665527,0.836877787337956
5.687682071,0.0952897667884827,0.740052461624146,0.238940238952637,0.783485943333576
5.695586123,0.409774005413055,0.664098262786865,0.670734405517578,1.02899265346931
5.703520694,0.711672246456146,0.657833576202393,0.890812873840332,1.31634720972654
5.711394229,1.02260899543762,0.708983421325684,1.0549373626709,1.63134284821543
5.719359317,1.14356064796448,0.806389093399048,1.17244529724121,1.82554712361771
5.727293887,1.15028548240662,0.894719839096069,1.22661590576172,1.90480100319565
5.73519794,0.928045868873596,0.91468358039856,1.28176689147949,1.82779691187973
5.74313251,0.686352014541626,0.935629606246948,1.36592483520508,1.7922702093661
5.751006045,0.323098719120026,0.93468713760376,1.52659130096436,1.81893205691663
5.758940616,-0.0315674543380737,0.888031244277954,1.6766414642334,1.89755700693654
5.766875186,-0.45245435833931,0.738115072250366,1.78525352478027,1.98410154830941
5.774748721,-0.833709180355072,0.55573844909668,1.97425270080566,2.21395346560201
5.782683291,-1.12352359294891,0.331584215164185,2.30341720581055,2.58417959509066
5.790556827,-1.19206631183624,0.192493915557861,2.73105716705322,2.98609263906102
5.798521914,-1.2158362865448,0.0340619087219238,3.16675758361816,3.39231067013444
5.806456485,-1.1924911737442,-0.127859115600586,3.48875427246094,3.68914482319608
5.81433002,-1.07812929153442,-0.234104871749878,3.6806697845459,3.84245987918035
5.82226459,-0.863851487636566,-0.208532571792603,3.75331687927246,3.85708605328192
5.830138125,-0.594463288784027,-0.211630344390869,3.66214466094971,3.71611053685185
5.838133731,-0.364803701639175,-0.343531847000122,3.42933654785156,3.46575316909087
5.846129336,-0.16606317460537,-0.516021251678467,3.27367877960205,3.31825672035191
5.854002872,0.052634958177805,-0.615431070327759,3.14103412628174,3.2011905947028
5.861906924,0.237207904458046,-0.536611795425415,3.07126903533936,3.12680560578386
5.869810977,0.261952608823776,-0.465346097946167,2.88218879699707,2.93124178833455
5.877684512,-0.0817785412073135,-0.599482536315918,2.57111358642578,2.64134286215421
5.885619082,-0.685566008090973,-0.881547927856445,2.28414916992188,2.54253120551402
5.893492618,-1.30839276313782,-1.21972990036011,1.79350566864014,2.53304070948498
5.90139667,-1.66512632369995,-1.3367645740509,1.43823337554932,2.57450974806078
5.909270205,-1.84917867183685,-1.39000225067139,1.14600658416748,2.58164658855604
5.917265811,-1.84918129444122,-1.44545340538025,0.91377067565918,2.51868693063098
5.925200381,-1.82902026176453,-1.55066704750061,0.753189086914063,2.51339953266405
5.933104434,-1.71454894542694,-1.67242240905762,0.739649772644043,2.50674222582919
5.941039004,-1.54427671432495,-1.7917001247406,0.802592277526856,2.49782590893511
5.948943057,-1.26169180870056,-1.83315467834473,0.921092987060547,2.4084714209829
5.956908145,-0.995516419410706,-1.79844856262207,1.0767650604248,2.32053725871087
5.96490375,-0.699173808097839,-1.75528049468994,1.15857982635498,2.2163395143808
5.972746768,-0.517496109008789,-1.72075057029724,1.16776275634766,2.14300130730949
5.980681338,-0.38007116317749,-1.66264295578003,1.09053897857666,2.02437915205602
5.988524356,-0.293071687221527,-1.59443497657776,0.875930786132813,1.84265261253461
5.996519961,-0.300364047288895,-1.54471635818481,0.573211669921875,1.6747951536478
6.004485049,-0.412536829710007,-1.53418183326721,0.0312509536743164,1.58898620368456
6.012358584,-0.587917685508728,-1.5521821975708,-0.508450508117676,1.73592589087057
6.020323672,-0.790112614631653,-1.5436475276947,-1.11816310882568,2.0633502784299
6.028227725,-0.932019948959351,-1.51037454605103,-1.54355907440186,2.35211969737625
6.036131778,-1.13293170928955,-1.46311163902283,-1.90115213394165,2.65303776123686
6.044096866,-1.28282082080841,-1.38840770721436,-2.03182888031006,2.77518176316684
6.051939883,-1.38472938537598,-1.33760929107666,-2.00275564193726,2.77807563748899
6.059874454,-1.49786031246185,-1.29755902290344,-1.8241114616394,2.69344158244628
6.067778506,-1.57642090320587,-1.29788255691528,-1.66768884658813,2.63643472982811
6.075774112,-1.58072066307068,-1.32905745506287,-1.47639131546021,2.53866162571602
6.083708682,-1.5331015586853,-1.32624530792236,-1.36668920516968,2.4448244087371
6.091612735,-1.33301270008087,-1.31327700614929,-1.30176162719727,2.27951808229297
6.099547305,-0.920172274112701,-1.220299243927,-1.25218915939331,1.97580994776235
6.10742084,-0.514896392822266,-1.10585355758667,-1.29621648788452,1.77994594570514
6.115385928,-0.0938319265842438,-0.98825216293335,-1.36589527130127,1.68852499541823
6.123381534,0.264088004827499,-0.957725286483765,-1.42548990249634,1.73752745612356
6.131224551,0.574982702732086,-0.986346244812012,-1.38585138320923,1.79556901271958
6.139159122,0.75862056016922,-0.985426187515259,-1.32598352432251,1.81791150283149
6.147063174,0.894445896148682,-0.97420859336853,-1.32246828079224,1.87030430631806
6.154936709,0.798137307167053,-0.945180892944336,-1.36724185943604,1.84383849175383
6.162901797,0.526510000228882,-0.90004825592041,-1.34824895858765,1.70442802654118
6.170775332,0.266002684831619,-0.762599229812622,-1.4784951210022,1.68471446734328
6.178679385,-0.0218494236469269,-0.579438447952271,-1.64276456832886,1.742096937382
6.186583438,-0.283320516347885,-0.394336223602295,-1.86109304428101,1.9233925474795
6.194518008,-0.397458434104919,-0.30727744102478,-1.99497509002686,2.05725988694465
6.202452579,-0.418722540140152,-0.194741249084473,-2.05460691452026,2.10586378783408
6.210326114,-0.311455696821213,-0.0618240833282471,-1.97374391555786,1.99912278576466
6.218291202,0.00399710237979889,0.0877149105072022,-1.69991159439087,1.70217781418312
6.226195254,0.274242490530014,0.189144849777222,-1.34310007095337,1.38380002832935
6.234099307,0.434500187635422,0.174261093139648,-1.06075572967529,1.15946541978465
6.242094913,0.520100831985474,0.0960977077484131,-0.792222023010254,0.95255203459388
6.249968448,0.477570831775665,0.0155253410339355,-0.620771408081055,0.783372246552082
6.257903018,0.331378519535065,-0.0232357978820801,-0.553125381469727,0.645212610802438
6.265776553,0.204970493912697,0.011760950088501,-0.591072082519531,0.62571353673688
6.273741641,0.0813238769769669,0.0574755668640137,-0.728126525878906,0.734904926804407
6.281706729,0.028874434530735,0.124758243560791,-0.703856468200684,0.71541056753013
6.289610782,-0.0425339788198471,0.164502143859863,-0.688766479492188,0.709414799648838
6.297545352,-0.17359285056591,0.209495544433594,-0.58054256439209,0.641133784772001
6.305449405,-0.293295800685883,0.229040622711182,-0.499064445495605,0.622533014634353
6.313414493,-0.392885506153107,0.243041753768921,-0.233924865722656,0.517831205919089
6.32137958,-0.387928694486618,0.220737457275391,0.116565704345703,0.461303870003392
6.329253116,-0.269106417894363,0.239881992340088,0.555410385131836,0.662149779365122
6.337187686,-0.00154942134395242,0.261000871658325,1.01609516143799,1.04908209059663
6.345030704,0.334750354290009,0.255544185638428,1.50911331176758,1.56677490989134
6.352995791,0.574764013290405,0.143441677093506,1.93911933898926,2.02758797504405
6.360930362,0.652746558189392,0.00402569770812988,2.12730979919434,2.22520589097242
6.368834414,0.641401648521423,-0.101019144058228,2.11931991577148,2.2165554014231
6.376768985,0.599989950656891,-0.158638954162598,1.99698352813721,2.09119522530021
6.38464252,0.468503296375275,-0.173404932022095,1.77850723266602,1.84733661951725
6.392607608,0.310857355594635,-0.186368703842163,1.61399364471436,1.65418894763489
6.400542178,0.0119442045688629,-0.183484792709351,1.45717620849609,1.46873136951092
6.408415713,-0.181666269898415,-0.0772101879119873,1.44304656982422,1.45648462038487
6.416350284,-0.265963524580002,0.0403485298156738,1.48968124389648,1.51377501917632
6.424193301,-0.24141937494278,0.207919836044312,1.63282775878906,1.66362269240672
6.432066836,-0.209304586052895,0.30286693572998,1.81433582305908,1.85131068957556
6.440062442,-0.11457996070385,0.370259046554565,2.05938148498535,2.09553631074502
6.447966495,-0.0156727135181427,0.337076187133789,2.16505908966064,2.19119758388053
6.455931582,0.116384297609329,0.255056858062744,2.19168663024902,2.20954510947099
6.463835635,0.216758608818054,0.169609069824219,2.28538417816162,2.30189755915741
6.471800723,0.282590836286545,0.0351150035858154,2.34301090240479,2.36025226046235
6.479765811,0.322898209095001,-0.102699041366577,2.39530754089355,2.41915451387378
6.487669864,0.235148549079895,-0.300569295883179,2.50240612030029,2.53133820985629
6.495604434,0.104802250862122,-0.55095911026001,2.64482688903809,2.70363620443712
6.503508487,-0.0373032689094543,-0.780810117721558,2.84346961975098,2.94896175835741
6.511382022,-0.0422594547271729,-1.01825475692749,3.00958251953125,3.17745425669472
6.519286075,0.0719998478889465,-1.20020127296448,3.02800178527832,3.25798432859495
6.52715961,0.232837080955505,-1.37915349006653,2.89670181274414,3.21669999337609
6.535063663,0.490893244743347,-1.57620286941528,2.69358444213867,3.15923864407536
6.542998233,0.855773270130158,-1.73667740821838,2.41084003448486,3.09201325708031
6.550963321,1.34287285804749,-1.87162399291992,1.95326900482178,3.02018934653965
6.558867373,1.69039011001587,-1.89816606044769,1.52233219146729,2.96276027012861
6.566740909,1.96980917453766,-1.9096006155014,1.02201557159424,2.92766776178534
6.574705997,2.05859422683716,-1.90542018413544,0.681705474853516,2.88672108512812
6.582549014,1.9939455986023,-1.86382746696472,0.358583450317383,2.7528628675688
6.590514102,1.95301258563995,-1.72635316848755,0.142759323120117,2.61054278768856
6.598448672,1.88276124000549,-1.54555988311768,0.037501335144043,2.43617560723921
6.606322207,1.64974129199982,-1.37972259521484,-0.0391674041748047,2.15100322078453
6.614256778,1.30821824073792,-1.28834795951843,-0.149587631225586,1.84218671410104
6.62216083,0.827386915683746,-1.26170325279236,-0.255312919616699,1.53024471679359
6.630064883,0.455714464187622,-1.2536780834198,-0.382612228393555,1.38772350525356
6.637999454,0.169264674186707,-1.22983074188232,-0.518429756164551,1.34532657584811
6.645903506,0.0495442748069763,-1.2121422290802,-0.609668731689453,1.35773317742681
6.653807559,0.060565710067749,-1.16691493988037,-0.753575325012207,1.39040801659774
6.661681094,0.126993894577026,-1.16062355041504,-0.828140258789063,1.43142962218373
6.669646182,0.188584923744202,-1.15811014175415,-0.873930931091309,1.46305797773552
6.67761127,0.203580617904663,-1.16537022590637,-0.913040161132813,1.49438119877659
6.685484805,0.252904951572418,-1.17626023292542,-0.899741172790527,1.50235922072788
6.693419375,0.260728895664215,-1.1801426410675,-0.85036563873291,1.47778142153625
6.701323428,0.306658148765564,-1.12678360939026,-0.817637443542481,1.42555656207586
6.709257998,0.37196683883667,-1.03029942512512,-0.678743362426758,1.28863058579474
6.717192569,0.350367188453674,-0.795190095901489,-0.594788551330566,1.0530232077968
6.725096622,0.232964754104614,-0.566663503646851,-0.559902191162109,0.829982268900052
6.733031192,-0.00660812854766846,-0.383822917938232,-0.745865821838379,0.838856080555039
6.740904727,-0.218234956264496,-0.30756664276123,-1.06577301025391,1.13052901124246
6.748900332,-0.434089601039887,-0.300999402999878,-1.49222803115845,1.58296522997578
6.756834903,-0.578921794891357,-0.287655115127564,-1.87598371505737,1.98424061268278
6.764738955,-0.666421592235565,-0.208441019058228,-2.34189224243164,2.44377263103287
6.772673526,-0.626736044883728,-0.0872671604156494,-2.75404500961304,2.82580564480609
6.780547061,-0.494586706161499,0.0456607341766357,-2.9531888961792,2.99466618658463
6.788512149,-0.332221329212189,0.131972312927246,-2.95653295516968,2.97806561680015
6.796507754,-0.0890455842018127,0.150733709335327,-2.72430849075317,2.72992793311209
6.804381289,0.161343455314636,0.133153676986694,-2.29465341567993,2.30416924516397
6.812285342,0.31698739528656,0.101655960083008,-1.85420799255371,1.88385302575361
6.820189395,0.428779244422913,0.0541572570800781,-1.32845878601074,1.3969922673628
6.82806293,0.406360507011414,-0.0129134654998779,-0.874974250793457,0.964818925395518
6.8359975,0.342197895050049,0.0326666831970215,-0.514650344848633,0.618895378089541
6.843871036,0.27489161491394,0.177384853363037,-0.256607055664063,0.415785963169994
6.851805606,0.185546457767487,0.396169662475586,-0.111719131469727,0.451507534590987
6.859709659,0.0535353422164917,0.684131383895874,-0.09906005859375,0.69333590596919
6.867674747,-0.209355533123016,0.899902820587158,-0.335403442382813,0.98292944554133
6.875639834,-0.500691056251526,1.10680079460144,-0.571762084960938,1.34261365051139
6.883543887,-0.693367600440979,1.19314742088318,-0.597805976867676,1.50390537710329
6.891478457,-0.665831804275513,1.22010898590088,-0.462786674499512,1.46498103576639
6.899351993,-0.435220807790756,1.2133162021637,0.033656120300293,1.28945185734119
6.907225528,-0.187285125255585,1.11763477325439,0.425994873046875,1.21064232388911
6.915160098,0.192408382892609,0.958552598953247,0.932745933532715,1.35124351887037
6.923003116,0.479592204093933,0.795169830322266,1.25242614746094,1.55912635669027
6.930907168,0.713152348995209,0.681399583816528,1.6391716003418,1.91305389392714
6.938811221,0.931133031845093,0.620280742645264,1.73746681213379,2.06653038834563
6.946776309,1.09699320793152,0.689199209213257,1.80593681335449,2.22256550455932
6.954741397,1.21625328063965,0.769640922546387,1.77811145782471,2.28764060743209
6.962614932,1.25540065765381,0.923268556594849,1.73979187011719,2.3356650851867
6.97058002,1.16430115699768,1.02875518798828,1.86325073242188,2.42603332888681
6.978453555,1.05738115310669,1.05540156364441,2.05884170532227,2.5437681755739
6.986388125,1.00580286979675,0.943172216415405,2.35682487487793,2.73053781031369
6.994322696,0.910768866539002,0.766420364379883,2.82314491271973,3.06382886294392
7.002196231,0.69283652305603,0.59141731262207,3.40771865844727,3.52737059868666
7.010161319,0.507506966590881,0.505708456039429,3.81161403656006,3.87836382091079
7.018065372,0.220212265849113,0.43743634223938,4.16751194000244,4.19618871901695
7.025938907,0.0406378656625748,0.536724805831909,4.35704898834229,4.39017093518412
7.033873477,-0.180144637823105,0.681411743164063,4.15146541595459,4.21087154329425
7.041747012,-0.438132166862488,0.822171688079834,3.64474487304688,3.76192653701812
7.049651065,-0.611136317253113,0.816439867019653,3.14382934570313,3.30510583939893
7.057555118,-0.871015310287476,0.659598827362061,2.48003578186035,2.7100398084014
7.065520205,-1.02897047996521,0.544273138046265,2.08534336090088,2.38823584059279
7.073454776,-1.11069309711456,0.431660652160645,1.6740837097168,2.05487866837457
7.081358829,-1.14030504226685,0.357161998748779,1.3273868560791,1.78600564065766
7.089323916,-1.30227208137512,0.160712003707886,1.06656360626221,1.6909461399666
7.097197452,-1.6546151638031,-0.108102083206177,0.953085899353027,1.91254023022426
7.105162539,-1.96217954158783,-0.477557182312012,1.11405277252197,2.306365754985
7.11309711,-2.31095957756043,-0.868697166442871,1.5887451171875,2.93586102932194
7.120970645,-2.57228636741638,-1.08133888244629,2.22436141967773,3.56843588425477
7.128905215,-2.85069704055786,-1.35002660751343,3.03389358520508,4.37647754985537
7.136809268,-3.11546945571899,-1.59866809844971,3.51817798614502,4.96381566546485
7.144743838,-3.44147944450378,-1.98721921443939,3.73728179931641,5.4552814978405
7.152647891,-3.49301648139954,-2.29151391983032,3.81202793121338,5.65541838703874
7.160521426,-3.37067818641663,-2.47418928146362,3.55432510375977,5.48783299491805
7.168486514,-2.96813631057739,-2.54722929000855,3.02793502807617,4.94637248378001
7.176360049,-2.46789860725403,-2.51558923721313,2.44993495941162,4.29195690232511
7.184325137,-1.97139775753021,-2.49531841278076,1.71225643157959,3.61176482997489
7.192290225,-1.52123689651489,-2.46238493919373,1.02588939666748,3.0708224205058
7.200194278,-1.14200520515442,-2.40802574157715,0.403288841247559,2.69544166143004
7.208128848,-0.945174813270569,-2.32159495353699,-0.0704641342163086,2.50761315799314
7.216002383,-0.816474318504334,-2.18187141418457,-0.587666511535645,2.40261214297967
7.223875918,-0.909766614437103,-2.02669763565063,-0.968720436096191,2.42355067667392
7.231810489,-1.0822628736496,-1.90514862537384,-1.2740159034729,2.53456125093595
7.239684024,-1.42808675765991,-1.76938009262085,-1.60579013824463,2.78364862503339
7.247588077,-1.74012351036072,-1.60438203811646,-1.77192735671997,2.95665319458225
7.255492129,-2.01346397399902,-1.3539719581604,-1.9779543876648,3.13042821316175
7.2634267,-2.10554981231689,-1.14533853530884,-2.08005046844482,3.17360210547709
7.27136127,-2.07410573959351,-0.92333722114563,-2.05417203903198,3.06171341064256
7.279265323,-1.96703314781189,-0.783724546432495,-1.88590478897095,2.83550356062819
7.287230411,-1.74218988418579,-0.666143417358398,-1.7684473991394,2.57028769762689
7.295134463,-1.44148826599121,-0.622912168502808,-1.67710208892822,2.29751592102136
7.303099551,-1.19079852104187,-0.647506952285767,-1.65624570846558,2.14019069659331
7.311064639,-0.957031726837158,-0.687824726104736,-1.69851064682007,2.06735362175296
7.318938174,-0.671694338321686,-0.714153528213501,-1.75083351135254,2.00664060819776
7.326903262,-0.367243468761444,-0.719456195831299,-1.84442186355591,2.0135483589502
7.334776797,-0.110566794872284,-0.700376033782959,-1.98614645004272,2.10891662372963
7.342741885,0.116442918777466,-0.707415342330933,-2.13132286071777,2.24867351043161
7.350706973,0.249266147613525,-0.670284748077393,-2.22763252258301,2.33960721308531
7.358580508,0.289016008377075,-0.619708299636841,-2.25614738464355,2.35749223773292
7.366545596,0.281944692134857,-0.561718225479126,-2.26027297973633,2.34602943655543
7.374419131,0.104734539985657,-0.539151430130005,-2.19690322875977,2.26451703129217
7.382384219,-0.124829947948456,-0.441778182983398,-2.1521167755127,2.20053563804545
7.390318789,-0.365134835243225,-0.358513832092285,-2.17834854125977,2.23764563390143
7.398283877,-0.50518137216568,-0.240817546844482,-2.19421100616455,2.26445650195031
7.406248965,-0.609894335269928,-0.119642734527588,-2.233154296875,2.31803011148925
7.4141225,-0.643652439117432,-0.0882940292358398,-2.21354961395264,2.30692136654252
7.422057071,-0.628565549850464,-0.0960431098937988,-2.28651475906372,2.37328225730382
7.429991641,-0.539562582969666,-0.10226583480835,-2.26771259307861,2.33326091269649
7.437865176,-0.232746124267578,-0.0603458881378174,-2.15770673751831,2.17106212479253
7.445769229,0.0468890070915222,0.0210723876953125,-2.02172517776489,2.02237862897077
7.453642764,0.274547874927521,0.0770297050476074,-1.85030889511108,1.87215200195234
7.461607852,0.307156443595886,0.0975856781005859,-1.6794319152832,1.71007590576694
7.46957294,0.15787661075592,0.125166177749634,-1.53061485290527,1.54381780797167
7.477476993,0.0346707701683044,0.193443298339844,-1.34149932861328,1.35581813701047
7.485350528,-0.135625213384628,0.203786849975586,-1.12855672836304,1.15480022855128
7.49325458,-0.35230165719986,0.248812913894653,-0.891352653503418,0.990219105397437
7.501158633,-0.551384627819061,0.274640798568726,-0.78494930267334,0.997796564336135
7.509093204,-0.772797465324402,0.293122053146362,-0.694124221801758,1.07932613039084
7.516966739,-0.943125545978546,0.312013864517212,-0.681187629699707,1.20451443909328
7.524931827,-0.968858361244202,0.374941825866699,-0.640904426574707,1.22066636757965
7.532805362,-0.749417543411255,0.528034448623657,-0.535003662109375,1.06144992900103
7.540800967,-0.308425039052963,0.688298940658569,-0.347195625305176,0.830316950722784
7.548735538,0.257008731365204,0.816988229751587,0.0495729446411133,0.857893194046307
7.556609073,0.640939831733704,0.847060918807983,0.363090515136719,1.12256438134162
7.564574161,0.852193474769592,0.808184146881104,0.643931388854981,1.33941889163268
7.572478213,0.763245820999146,0.714353561401367,0.779485702514648,1.30401041191558
7.580382266,0.541392624378204,0.615625619888306,0.812822341918945,1.15446136233162
7.588347354,0.220565497875214,0.586569786071777,0.808279991149902,1.02275598110132
7.596220889,-0.0674138367176056,0.570990562438965,0.677023887634277,0.888220801491827
7.604155459,-0.500439167022705,0.543664932250977,0.538473129272461,0.91431079475106
7.612028995,-0.914240837097168,0.537358283996582,0.49741268157959,1.17132813907636
7.619994082,-1.27936434745789,0.494462490081787,0.440336227416992,1.44054235648246
7.627898135,-1.42237365245819,0.498698234558105,0.519404411315918,1.59424831154154
7.63577167,-1.34055888652802,0.530721187591553,0.920363426208496,1.71050634126567
7.643736758,-1.07270228862762,0.570374488830566,1.47871971130371,1.91379968704507
7.651640811,-0.81756055355072,0.545926570892334,1.83980464935303,2.08598231711332
7.659605899,-0.553686320781708,0.459424495697022,2.07197380065918,2.19333418331209
7.667570987,-0.272049814462662,0.377630710601807,2.23892021179199,2.28678371734397
7.675444522,0.0630855560302734,0.333078861236572,2.33736133575439,2.36181695502888
7.68340961,0.351891934871674,0.386726379394531,2.32719993591309,2.38521377827255
7.691283145,0.621914744377136,0.451818466186523,2.09853267669678,2.23489536015111
7.69927875,0.798654735088348,0.522884368896484,1.78085994720459,2.02057407700704
7.707213321,0.859770119190216,0.547823429107666,1.67918109893799,1.96442468177383
7.715117373,0.94188928604126,0.572027683258057,1.61507797241211,1.95521046297929
7.723051944,0.972333908081055,0.481858730316162,1.50511837005615,1.85553290799882
7.730955997,0.756681025028229,0.215367317199707,1.47845268249512,1.67474523117177
7.738890567,0.434074103832245,-0.113982200622559,1.58010768890381,1.6426054237733
7.746825137,0.116417348384857,-0.495266914367676,1.85504722595215,1.92354946023881
7.754698672,-0.0404444932937622,-0.730159282684326,2.25672626495361,2.37225246760529
7.76266376,-0.00255018472671509,-0.808414459228516,2.55981540679932,2.68443576161156
7.770567813,0.113835692405701,-0.983683586120606,2.85888481140137,3.02552711561639
7.778532901,0.203996360301971,-1.10636425018311,3.03359699249268,3.23548560218714
7.786467471,0.284984469413757,-1.2390239238739,3.092453956604,3.34360103861909
7.794341006,0.429958343505859,-1.24297833442688,3.04613590240479,3.31795166524836
7.802275577,0.647894859313965,-1.23945569992065,2.89043617248535,3.21101844404591
7.810179629,0.812321245670319,-1.23657560348511,2.66029834747314,3.04403881822658
7.8181142,0.903333306312561,-1.23761343955994,2.39318084716797,2.84165667442859
7.82604877,0.934530079364777,-1.12137055397034,2.10265350341797,2.55968164895268
7.833922305,0.907433092594147,-0.981131076812744,1.74043464660645,2.19434859731329
7.84179584,0.793659090995789,-0.839583873748779,1.29544353485107,1.73579082431228
7.849669375,0.606963276863098,-0.76190447807312,0.886706352233887,1.31725130793641
7.857634463,0.386548399925232,-0.736700296401978,0.410678863525391,0.927795301319222
7.865569034,0.236203610897064,-0.68666672706604,0.129615783691406,0.737633778539416
7.873442569,0.152343451976776,-0.677519083023071,-0.0861997604370117,0.699764984777048
7.881377139,0.113183915615082,-0.688390493392944,-0.165608406066895,0.717020372310132
7.889281192,0.0941049456596375,-0.740572929382324,-0.219718933105469,0.778190474174881
7.89724628,0.0692573189735413,-0.870714426040649,-0.244877815246582,0.907141296792644
7.90518085,0.113350033760071,-0.954980373382568,-0.25996208190918,0.996200796892812
7.913054385,0.156433165073395,-1.03615546226501,-0.242519378662109,1.07559524271129
7.921019473,0.116273939609528,-1.05595374107361,-0.249312400817871,1.09119870120947
7.928923526,0.0125929117202759,-1.01165533065796,-0.320286750793457,1.06122037871881
7.936858096,-0.171157896518707,-0.951452255249023,-0.535860061645508,1.10530648474796
7.944823184,-0.267544597387314,-0.911790132522583,-0.789628982543945,1.23549799167383
7.952666202,-0.480614542961121,-0.909287214279175,-1.08884811401367,1.49779297379459
7.960600772,-0.645129024982452,-0.895447492599487,-1.30210971832275,1.70689993538815
7.968474307,-0.836411952972412,-0.864820718765259,-1.63567876815796,2.03050359844141
7.976439395,-0.950277924537659,-0.82895302772522,-1.90067529678345,2.28095546643096
7.984343448,-0.925113141536713,-0.806746006011963,-2.13633441925049,2.46385839563367
7.992216983,-0.852802217006683,-0.813697814941406,-2.25207138061523,2.54188930891141
8.000182071,-0.559479296207428,-0.856730461120606,-2.27185344696045,2.49165050726677
8.008055606,-0.169567704200745,-0.877960920333862,-2.1862621307373,2.36205645322829
8.016020694,0.16033798456192,-0.877920866012573,-2.0670371055603,2.25146523669293
8.023955264,0.412114024162293,-0.87670373916626,-2.00010442733765,2.22235576257155
8.031828799,0.544002234935761,-0.917131185531616,-2.0255012512207,2.28904420267202
8.03976337,0.579200446605682,-0.910386800765991,-2.08339786529541,2.34623612398127
8.047606387,0.560275912284851,-0.875869750976563,-2.19281053543091,2.42682404859915
8.055479922,0.644769489765167,-0.664396047592163,-2.29171657562256,2.4716623284687
8.06344501,0.712603688240051,-0.484184265136719,-2.37531709671021,2.52673103614593
8.071318545,0.658197999000549,-0.292773962020874,-2.39395475387573,2.49999211245355
8.079253116,0.338711798191071,-0.136991024017334,-2.3408989906311,2.36924044943371
8.087126651,0.0946161150932312,0.0212082862854004,-2.25547456741333,2.25755786745121
8.095091739,-0.216742843389511,0.228985548019409,-1.93727684020996,1.96276677090688
8.103026309,-0.487785577774048,0.376422643661499,-1.58987951278687,1.70509402723864
8.110899844,-0.77233874797821,0.44182825088501,-1.10060214996338,1.41528952423618
8.118864932,-0.900249183177948,0.462795734405518,-0.583925247192383,1.16858768515897
8.126738467,-0.914397835731506,0.474943399429321,0.0666627883911133,1.03253985976718
8.134703555,-0.777940332889557,0.516075849533081,0.526721954345703,1.07189619889118
8.142638125,-0.46210116147995,0.607857465744019,0.709550857543945,1.04234859885895
8.150511661,-0.0389573574066162,0.744944334030151,0.945767402648926,1.20454793030955
8.158476748,0.339812219142914,0.811684131622315,0.957999229431152,1.30079437168101
8.166350284,0.735540688037872,0.863702297210693,0.880077362060547,1.43580567110515
8.174223819,0.899340391159058,0.846179962158203,0.70464038848877,1.42174250292301
8.182127872,1.01875734329224,0.845076560974121,0.343603134155273,1.36751015799556
8.190001407,0.99679571390152,0.884897470474243,0.00165653228759766,1.33290958905823
8.197935977,0.935144484043121,0.951277017593384,-0.324470520019531,1.37284532581037
8.205778995,0.924527525901794,0.976746082305908,-0.468786239624023,1.42426984588977
8.2137746,0.86812150478363,0.986160039901733,-0.343070983886719,1.35788227448177
8.22170917,0.812050759792328,0.89945650100708,-0.0341558456420898,1.21227680645747
8.229582705,0.706350207328796,0.752197504043579,0.458321571350098,1.12906614653334
8.237517276,0.515698432922363,0.529002189636231,1.30791473388672,1.50214151845839
8.245421329,0.304621338844299,0.311453580856323,1.99471092224121,2.04173190120934
8.253355899,0.141983509063721,0.0635192394256592,2.79613590240479,2.80045889013574
8.261290469,0.0378466248512268,-0.097052812576294,3.4758243560791,3.4773850189121
8.269164004,0.000773966312408447,-0.199840307235718,3.95730304718018,3.96234578938303
8.277098575,-0.0707429051399231,-0.223677635192871,4.14597320556641,4.15260521412615
8.285033145,-0.253827124834061,-0.24158239364624,3.9581298828125,3.9736107548972
8.292998233,-0.590666055679321,-0.2843337059021,3.33889102935791,3.40263506000431
8.300932803,-0.810223460197449,-0.229863405227661,2.69545364379883,2.82396345344368
8.308806338,-1.05875897407532,-0.184252500534058,1.79981803894043,2.09625010970386
8.316771426,-1.27366292476654,-0.170418262481689,1.22535991668701,1.77560315260346
8.324644961,-1.39927172660828,-0.0345849990844727,0.837010383605957,1.63087211923902
8.332640567,-1.48165225982666,0.166907548904419,0.749429702758789,1.66877093344409
8.340605655,-1.62297677993774,0.269826173782349,0.856075286865234,1.85464947875778
8.348509707,-1.87642705440521,0.209600448608398,1.17483139038086,2.22376699192719
8.356444278,-2.19979643821716,-0.0651304721832275,1.66571807861328,2.76006577193712
8.364317813,-2.45524978637695,-0.412479877471924,2.46621227264404,3.50436786547352
8.372282901,-2.49270248413086,-0.665365695953369,3.04379272460938,3.99010668204857
8.380247989,-2.39750790596008,-0.843670845031738,3.50831890106201,4.33221954261861
8.388121524,-2.34421467781067,-1.05865836143494,3.91229248046875,4.68210769148163
8.396086612,-2.3411021232605,-1.25060796737671,4.01317691802979,4.81148297461479
8.403960147,-2.21304774284363,-1.35506331920624,3.96163272857666,4.73585375484645
8.411925235,-2.0421142578125,-1.36911451816559,3.75341320037842,4.48696064821031
8.419890323,-1.84704625606537,-1.33210051059723,3.22834587097168,3.95073267951634
8.427794375,-1.76961302757263,-1.32245981693268,2.65363025665283,3.45285154238924
8.435698428,-1.68951869010925,-1.25094175338745,1.92202854156494,2.8484245451103
8.443571963,-1.59098696708679,-1.12230563163757,1.28649139404297,2.33363869679778
8.451445498,-1.51525485515594,-1.04433393478394,0.808448791503906,2.01002987338474
8.459380069,-1.48316597938538,-0.993570327758789,0.409731864929199,1.83162319262103
8.467284122,-1.43498718738556,-0.951262712478638,0.0967645645141602,1.72437013342801
8.475188174,-1.34528136253357,-0.906145095825195,-0.174202919006348,1.63132692494747
8.483092227,-1.257483959198,-0.847018957138062,-0.334382057189941,1.552584420108
8.491026797,-1.03487920761108,-0.76179575920105,-0.362205505371094,1.3351032099443
8.498961368,-0.945727467536926,-0.705750465393066,-0.391654968261719,1.24333333278748
8.50686542,-0.881909012794495,-0.716033935546875,-0.522773742675781,1.25050409424926
8.514799991,-0.859502911567688,-0.743494749069214,-0.743127822875977,1.35785443182221
8.522673526,-0.846613109111786,-0.760942220687866,-0.999458312988281,1.51482795694649
8.530638614,-0.781043350696564,-0.750164985656738,-1.23394203186035,1.64176403888145
8.538542666,-0.73977917432785,-0.700872421264648,-1.42682409286499,1.75337456626888
8.546416202,-0.704705595970154,-0.60992956161499,-1.62150716781616,1.87026991164449
8.554350772,-0.548817276954651,-0.452994108200073,-1.8617639541626,1.99313047404505
8.562224307,-0.394938886165619,-0.375137567520142,-2.07791519165039,2.14812394010731
8.570189395,-0.336320281028748,-0.370498180389404,-2.2842378616333,2.33840177078752
8.578093448,-0.236146777868271,-0.383628368377686,-2.38087606430054,2.42311924165546
8.585966983,-0.0629757344722748,-0.334894180297852,-2.46380615234375,2.48725969923862
8.593932071,0.133575960993767,-0.312559366226196,-2.5235447883606,2.54633348044459
8.602043024,0.376294672489166,-0.253043413162231,-2.64114236831665,2.67978761457057
8.610008112,0.55619752407074,-0.226431608200073,-2.73978424072266,2.80482524316342
8.6179732,0.783849775791168,-0.180582284927368,-2.8337082862854,2.94566343705454
8.625846735,0.88278067111969,-0.15911340713501,-2.86054706573486,2.99789064258805
8.633750788,0.938026368618012,-0.0903851985931397,-2.79866218566895,2.95306162852059
8.641624323,0.914373517036438,0.0353176593780518,-2.6816086769104,2.83343455223562
8.649528376,0.886793971061707,0.130995988845825,-2.69822311401367,2.84323257388535
8.657493464,0.690863013267517,0.213813781738281,-2.64511775970459,2.74219911732663
8.665397517,0.551052570343018,0.252480983734131,-2.55577182769775,2.62666617933884
8.673332087,0.491950660943985,0.427038669586182,-2.44230318069458,2.52769110149085
8.68123614,0.483191460371017,0.586877822875977,-2.32631349563599,2.44737288665566
8.689201228,0.401275455951691,0.701334476470947,-2.14328622817993,2.2905387783973
8.697166315,0.347545593976975,0.758430004119873,-2.00332832336426,2.17009870333944
8.705070368,0.263108849525452,0.760754585266113,-1.83225107192993,2.00127904008672
8.713004939,0.137230396270752,0.748946905136108,-1.71865367889404,1.87976703778676
8.720908991,0.0409955084323883,0.739394903182983,-1.63369655609131,1.7936972687578
8.728782526,-0.0497913360595703,0.708106517791748,-1.47450828552246,1.63648058398508
8.736686579,-0.0906771719455719,0.705069065093994,-1.29857683181763,1.48042106314321
8.744560114,-0.110658466815948,0.715623617172241,-1.05553340911865,1.28004423185232
8.752494685,-0.000809431076049805,0.763310432434082,-0.742877006530762,1.06513366216334
8.760398737,0.128582686185837,0.794730663299561,-0.417795181274414,0.907018824430588
8.768333308,0.310809522867203,0.780986785888672,-0.404947280883789,0.93301941005149
8.776298396,0.473118156194687,0.733145475387573,-0.304067611694336,0.924013089887707
8.784202448,0.645231127738953,0.655746221542358,-0.150870323181152,0.932248984814221
8.792137019,0.765793800354004,0.597736835479736,-0.00455760955810547,0.97146808540211
8.800010554,0.812754333019257,0.537245750427246,0.0576496124267578,0.975974425897865
8.807975642,0.868010401725769,0.516160011291504,-0.0124998092651367,1.00996012792201
8.815910212,0.781212568283081,0.511399984359741,-0.102799415588379,0.939356556740785
8.823783747,0.687226295471191,0.50343918800354,-0.192463874816895,0.873368960013037
8.831748835,0.407271176576614,0.393873929977417,-0.227322578430176,0.610476894444088
8.83962237,0.0611838027834892,0.246696949005127,-0.141075134277344,0.290697498927765
8.847526423,-0.0977074354887009,0.152234554290771,-0.0503549575805664,0.187770402946868
8.855460993,-0.176238238811493,0.102530241012573,0.193504333496094,0.281098371078953
8.863334528,-0.166091158986092,0.0405614376068115,0.487326622009277,0.516448196659692
8.871269099,-0.0268527157604694,-0.0343005657196045,0.869660377502441,0.870750692994319
8.879173151,0.292592078447342,-0.0665264129638672,1.2230167388916,1.25928782714716
8.887138239,0.76934289932251,-0.0470089912414551,1.67069625854492,1.83992508823362
8.895042292,1.22365641593933,0.0180809497833252,2.15583229064941,2.47896648029401
8.90288531,1.40104448795319,0.0399377346038818,2.27006149291992,2.66790177133775
8.910850398,1.46367573738098,0.095529317855835,2.25358581542969,2.68888853288374
8.918723933,1.41043043136597,0.189177989959717,2.14249992370605,2.57204359152189
8.926658503,1.28242588043213,0.290061712265015,1.90314292907715,2.31315908320647
8.934593073,0.972955763339996,0.394843816757202,1.68092823028564,1.98193447732743
8.942497126,0.539567947387695,0.532998323440552,1.53680896759033,1.71376853323448
8.950431696,0.0118787288665771,0.657560348510742,1.54599857330322,1.68007092254722
8.958305231,-0.382578134536743,0.739244937896729,1.86381244659424,2.04123637614833
8.966270319,-0.756222605705261,0.705314874649048,2.3949728012085,2.6086848066237
8.974174372,-1.03120243549347,0.555885076522827,2.88340282440186,3.11229794991371
8.982047907,-1.1685848236084,0.161945343017578,3.54323196411133,3.7344758046603
8.989982478,-1.15269422531128,-0.199218511581421,4.01820182800293,4.18501349137476
8.997825495,-0.891574382781982,-0.64311408996582,4.34162044525147,4.47863469188671
9.005760065,-0.484874665737152,-0.937003612518311,4.55104064941406,4.67172882389007
9.013725153,0.122740298509598,-1.19225978851318,4.71632957458496,4.86624220937352
9.021629206,0.75038206577301,-1.29188251495361,4.65081405639648,4.88488536858868
9.029533259,1.23697984218597,-1.32770824432373,4.3712854385376,4.73297630431323
9.037437312,1.68554019927979,-1.33275091648102,3.8447265625,4.40445151059269
9.045310847,1.91294157505035,-1.31398844718933,3.27447891235352,4.01349265059138
9.053245417,1.94009113311768,-1.30977058410645,2.40986919403076,3.35960148233847
9.061118952,1.82524228096008,-1.24170470237732,1.57587623596191,2.71232849470336
9.06908404,1.56477272510529,-1.07499742507935,0.651495933532715,2.00713230669289
9.076988093,1.29271674156189,-0.894398212432861,-0.168379783630371,1.58095429657309
9.084922663,0.984472572803497,-0.58291506767273,-0.936277389526367,1.47837463887221
9.092857233,0.637432754039764,-0.346693992614746,-1.41430473327637,1.58958331615735
9.100761286,0.300727725028992,-0.230838298797607,-1.62442255020142,1.66807437076281
9.108726374,-0.0668395757675171,-0.23355507850647,-1.65338850021362,1.67114004087736
9.116599909,-0.308649063110352,-0.350386381149292,-1.46762943267822,1.54012045370393
9.124595515,-0.404694378376007,-0.491339445114136,-0.975769996643066,1.16504037550766
9.132499567,-0.384553819894791,-0.623582601547241,-0.585378646850586,0.937765995084447
9.14040362,-0.317547529935837,-0.741862773895264,-0.122991561889648,0.81628655100766
9.14833819,-0.187503904104233,-0.802716255187988,0.220718383789063,0.853362587262772
9.156181208,-0.0845690369606018,-0.787471294403076,0.394108772277832,0.884638166657781
9.164176814,-0.0118983089923859,-0.761781930923462,0.556410789489746,0.943422623588686
9.172141901,0.0400923490524292,-0.74850344657898,0.547608375549316,0.928299380030448
9.180045954,0.0829882919788361,-0.749911546707153,0.504866600036621,0.907824139535195
9.187980524,0.0918979346752167,-0.790994644165039,0.240086555480957,0.831720693272722
9.19585406,0.113604187965393,-0.809649467468262,-0.161314010620117,0.833342895642162
9.203819148,0.230291604995728,-0.802008867263794,-0.672719955444336,1.07182301941799
9.211784235,0.388835966587067,-0.795554876327515,-1.1859769821167,1.48008188025893
9.219657771,0.554114699363709,-0.782373428344727,-1.75481081008911,1.99962803056879
9.227622858,0.602899551391602,-0.79986047744751,-2.1856427192688,2.4042251867792
9.235496394,0.597632169723511,-0.767707347869873,-2.57058620452881,2.74853637726985
9.243461481,0.506029725074768,-0.692962408065796,-2.75004291534424,2.88079832995762
9.251396052,0.456173360347748,-0.598459482192993,-2.76269769668579,2.86334532492863
9.259239069,0.507238209247589,-0.46740198135376,-2.6589150428772,2.74692271793962
9.267204157,0.538439035415649,-0.304522514343262,-2.4244065284729,2.50207865022331
9.275077692,0.552201747894287,-0.236692190170288,-2.21887683868408,2.29877454060066
9.283012263,0.532008171081543,-0.158228158950806,-2.0608959197998,2.13432913034283
9.290946833,0.47330915927887,-0.0799229145050049,-1.80648708343506,1.86917222725407
9.298850886,0.338323533535004,0.0167067050933838,-1.65353965759277,1.68787894310306
9.306815974,0.0230368375778198,0.0844268798828125,-1.70993661880493,1.71217459222545
9.314689509,-0.241435259580612,0.134745836257935,-1.81029033660889,1.83128330079677
9.322593562,-0.471370279788971,0.214455366134644,-1.7226185798645,1.79877619964983
9.330558649,-0.591020822525024,0.362219333648682,-1.54273176193237,1.69131006843867
9.338462702,-0.495820075273514,0.513180017471314,-1.40542554855347,1.57620184300835
9.346397273,-0.253310233354569,0.608624935150147,-1.10764217376709,1.28897694747274
9.354301325,-0.154189139604568,0.567053079605103,-0.783671379089356,0.979522494006871
9.362266413,-0.189242213964462,0.440927982330322,-0.412039756774902,0.632460957143744
9.370200983,-0.270097613334656,0.353644609451294,-0.19365119934082,0.485301985911014
9.378105036,-0.294199794530869,0.304156303405762,0.108904838562012,0.436949470609224
9.386039606,-0.383842021226883,0.340004205703735,0.417534828186035,0.661266126384914
9.393943659,-0.364627748727798,0.394464492797852,0.409327507019043,0.675355194858967
9.401847712,-0.377442330121994,0.429097414016724,0.240252494812012,0.61992625734611
9.4098128,-0.385887742042542,0.390585899353027,-0.0173053741455078,0.549332476926697
9.417686335,-0.290181696414948,0.337749481201172,-0.429126739501953,0.61840915868177
9.425620905,-0.0926855206489563,0.32912802696228,-0.658759117126465,0.742212529042249
9.433524958,0.127426743507385,0.32208251953125,-0.707266807556152,0.78752845118076
9.441459528,0.307322144508362,0.315061569213867,-0.514484405517578,0.67705605116674
9.449394099,0.331002861261368,0.228647708892822,-0.0925979614257813,0.412816001876574
9.457298151,0.361504912376404,0.104618549346924,0.679895401000977,0.777102695170982
9.465202204,0.237253099679947,0.0356919765472412,1.59775257110596,1.61566587788852
9.473106257,-0.160631835460663,-0.0628061294555664,2.64399719238281,2.64961664204255
9.481040827,-0.488212704658508,-0.131840705871582,3.34362316131592,3.38164892642671
9.488975398,-0.74104917049408,-0.267222166061401,3.99718189239502,4.07406733376059
9.49687945,-0.870944499969482,-0.387930631637573,4.30751037597656,4.41176610170299
9.504814021,-1.00287961959839,-0.525880575180054,4.39062213897705,4.5343004618169
9.512657038,-1.15916264057159,-0.657910346984863,4.10768985748291,4.31852058200892
9.520561091,-1.30170345306396,-0.646637678146362,3.61920261383057,3.90015380805362
9.528526179,-1.37711846828461,-0.615740776062012,2.8705472946167,3.24278179186131
9.536399714,-1.46636271476746,-0.538650512695313,2.37234210968018,2.84048782279539
9.544334284,-1.49632287025452,-0.467576026916504,2.11806964874268,2.63511451552274
9.552238337,-1.43765830993652,-0.473464250564575,2.20500946044922,2.67452734765655
9.560172907,-1.44951319694519,-0.613839387893677,2.6366024017334,3.07075878685941
9.568137995,-1.55866181850433,-0.842401266098023,3.20224952697754,3.65970881227109
9.576042048,-1.63833546638489,-1.05142343044281,3.74658584594727,4.22214872210242
9.584007136,-1.63189625740051,-1.26805174350739,4.37517929077148,4.83872239806393
9.591911189,-1.50108122825623,-1.30086231231689,4.88355255126953,5.27205587322828
9.599784724,-1.2955150604248,-1.2359402179718,5.24957942962647,5.54652969722014
9.607719294,-1.14864337444305,-1.05975580215454,5.26661777496338,5.49360780811775
9.615592829,-1.0404144525528,-0.832412719726563,4.91604423522949,5.09341379545943
9.623557917,-1.24304819107056,-0.683891773223877,4.23905944824219,4.4701791651497
9.631400935,-1.47619187831879,-0.556809306144714,3.13168239593506,3.5066527763714
9.639366023,-1.66096544265747,-0.468235492706299,1.90607166290283,2.57121758364659
9.647300593,-1.71701312065125,-0.19262433052063,1.12667465209961,2.06267640721487
9.65514361,-1.61659228801727,0.0782537460327148,0.35450267791748,1.65685437594731
9.663078181,-1.53720641136169,0.207240581512451,-0.304798126220703,1.5807764255279
9.670982233,-1.5602114200592,0.207241296768188,-1.02009868621826,1.87558256549626
9.678916804,-1.60985660552979,0.134059190750122,-1.43064594268799,2.15785958077027
9.686881892,-1.61208963394165,0.10276460647583,-1.84118461608887,2.44935794499876
9.694755427,-1.60322105884552,0.0659995079040527,-2.1596851348877,2.6905229195129
9.702689997,-1.48684895038605,0.0450232028961182,-2.33593130111694,2.76935406432637
9.71059405,-1.34158372879028,-0.00778818130493164,-2.43230295181274,2.77776982605108
9.718467585,-1.29197788238525,-0.0842885971069336,-2.59751510620117,2.90230876081754
9.726432673,-1.46925222873688,-0.230347871780396,-2.92428350448608,3.28073105698889
9.734306208,-1.48069977760315,-0.35249924659729,-3.15166330337524,3.49995844662302
9.742240778,-1.37928450107574,-0.443926453590393,-3.44713878631592,3.73928632806164
9.750144831,-1.15229570865631,-0.3954838514328,-3.59314584732056,3.79405982518052
9.758109919,-0.613515794277191,-0.314441680908203,-3.64665365219116,3.71124750718126
9.766075007,-0.161785796284676,-0.228918552398682,-3.70353698730469,3.71413039133599
9.773948542,0.10503588616848,-0.20228385925293,-3.8257417678833,3.83252545609606
9.781883112,0.290095090866089,-0.242542505264282,-4.01305103302002,4.03082629521883
9.789787165,0.296367049217224,-0.256461024284363,-4.13372755050659,4.15226554385145
9.7976607,0.116080425679684,-0.359756469726563,-4.09419584274292,4.11161026624235
9.805595271,-0.0513965003192425,-0.463548064231873,-3.82746171951294,3.85577250657182
9.813499323,-0.462220072746277,-0.444088578224182,-3.34292411804199,3.4038219283543
9.821403376,-0.626007258892059,-0.363630533218384,-2.77703619003296,2.86985056294348
9.829246394,-0.637926995754242,-0.233403205871582,-2.33294725418091,2.429829376564
9.837241999,-0.754860520362854,-0.235639929771423,-1.94788837432861,2.10228677885528
9.845176569,-0.793069124221802,-0.222939491271973,-1.39904975891113,1.62357657056014
9.853050105,-0.584182620048523,-0.169803500175476,-0.992337226867676,1.16397411228344
9.861015192,-0.356144726276398,-0.16190505027771,-0.844332695007324,0.930564350928107
9.868888728,-0.2539202272892,-0.254593849182129,-1.08716487884521,1.14508557918721
9.876853815,-0.295478016138077,-0.297889113426209,-1.2303352355957,1.29991152539974
9.884788386,-0.364868611097336,-0.178436040878296,-1.26247787475586,1.32620470075192
9.892692439,-0.123032324016094,0.157240629196167,-1.04292488098145,1.06186339780264
9.900627009,0.199187278747559,0.53950572013855,-0.617668151855469,0.843952569694306
9.908500544,0.460016518831253,0.872845768928528,-0.128003120422363,0.994916947675493
9.916374079,0.554773151874542,0.979167103767395,0.0910749435424805,1.12908640611882
9.924308649,0.525706887245178,0.965235948562622,0.315099716186523,1.14338794765181
9.932182185,0.499054968357086,0.933449983596802,0.532208442687988,1.18474915479486
9.94005572,0.515143394470215,0.900489091873169,0.761553764343262,1.28694112430766
9.947959773,0.424867808818817,0.809669971466065,0.70654296875,1.15554363152346
9.95592486,0.250593930482864,0.729981064796448,0.465437889099121,0.901278037880238
9.963859431,0.123989075422287,0.642415165901184,0.186685562133789,0.680383741217505
9.971702448,-0.0248510539531708,0.612705588340759,0.0712432861328125,0.617334041411602
9.979667536,-0.223229244351387,0.629934072494507,0.106971740722656,0.67682433802017
9.987571589,-0.382217526435852,0.687631249427795,0.355998992919922,0.863517374268967
9.995536677,-0.462939500808716,0.791960716247559,0.700689315795898,1.15433109407955
10.003471247,-0.355913668870926,0.905158996582031,1.27256202697754,1.60168706721623
10.0113753,-0.247333154082298,0.948046445846558,1.94226837158203,2.17540161345865
10.019279353,-0.310500353574753,0.81791877746582,2.03735160827637,2.21725126493312
10.027152888,-0.471754908561707,0.590324878692627,1.94807720184326,2.08950734396819
10.035117976,-0.637313485145569,0.38890814781189,1.99267196655273,2.12794727191912
10.043083064,-0.838545083999634,0.189748764038086,1.97970199584961,2.15832862273678
10.050987116,-1.09669351577759,-0.0137333869934082,1.87565994262695,2.17279209632267
10.058921687,-1.19704508781433,-0.146441698074341,1.78582668304443,2.15488724880649
10.066795222,-1.14320921897888,-0.251223087310791,1.78201866149902,2.13204851443091
10.07476031,-0.921952307224274,-0.244187116622925,1.85467338562012,2.08553033352391
10.08269488,-0.548630595207214,-0.16863226890564,1.8435230255127,1.93080540648434
10.090537898,-0.0121365338563919,-0.0618155002593994,1.78954029083252,1.79064873831785
10.098472468,0.41269862651825,0.0352048873901367,1.72400379180908,1.77306193196918
10.106376521,0.902210116386414,0.0738446712493897,1.668701171875,1.89842032505947
10.114280573,1.17731487751007,0.116438388824463,1.55179882049561,1.95133487605028
10.122245661,1.37193202972412,0.171174287796021,1.25075531005859,1.86437307871177
10.130119196,1.4739807844162,0.231895685195923,0.94716739654541,1.76734859004082
10.138053767,1.33516895771027,0.215814828872681,0.595241546630859,1.47768896755371
10.145896784,1.07083666324615,0.147045850753784,0.388347625732422,1.14853276835625
10.15389239,0.73710036277771,0.101075887680054,0.522414207458496,0.909092890760802
10.16182696,0.284211158752441,0.0607807636260986,0.673670768737793,0.733691071663099
10.169731013,-0.141967117786407,-0.0313379764556885,0.842900276184082,0.855346483532912
10.177696101,-0.37651726603508,-0.164921283721924,1.32738399505615,1.38957279470284
10.185569636,-0.555116057395935,-0.21478796005249,1.97374820709229,2.06154546153179
10.193504206,-0.49314883351326,-0.264564633369446,2.7898063659668,2.84538394189857
10.201438776,-0.370200723409653,-0.308637857437134,3.34257698059082,3.37714772757013
10.209312312,-0.173910617828369,-0.396959662437439,3.48861789703369,3.51543407107852
10.217246882,0.0253218412399292,-0.50312352180481,3.30333995819092,3.34153098941456
10.225120417,0.181495368480682,-0.597320914268494,2.9227352142334,2.988664246101
10.233085505,0.446261286735535,-0.537830710411072,2.27490425109863,2.37983200263522
10.241020075,0.607908308506012,-0.507731914520264,1.46291446685791,1.66356933907644
10.24889361,0.694468140602112,-0.532832503318787,0.419587135314941,0.97069554394059
10.256828181,0.714977264404297,-0.590674638748169,-0.364410400390625,0.996435626314208
10.264671198,0.778248250484467,-0.556653499603272,-0.977448463439941,1.36782270659753
10.272636286,0.901018023490906,-0.479598641395569,-1.30132102966309,1.65386963141819
10.280570856,1.10798239707947,-0.303025007247925,-1.3644495010376,1.78358391676347
10.288413874,1.38223671913147,-0.129888772964478,-1.12375354766846,1.78613310728932
10.296378962,1.46227145195007,-0.0560348033905029,-0.806606292724609,1.67092531545911
10.304252497,1.32050824165344,-0.0781444311141968,-0.448481559753418,1.39677638791171
10.31215655,1.03419101238251,-0.168296217918396,-0.180705070495605,1.0632633679203
10.320121638,0.709459543228149,-0.300432205200195,0.0602455139160156,0.772801316863495
10.32802569,0.458968281745911,-0.367321372032166,0.255900382995605,0.641141076532836
10.335960261,0.26378208398819,-0.35486114025116,0.411617279052734,0.604099496033793
10.343864314,0.116215944290161,-0.386631011962891,0.377330780029297,0.552601305351535
10.351829401,0.029962956905365,-0.403243541717529,0.236772537231445,0.468576959645292
10.359763972,0.0436284840106964,-0.436201691627502,-0.022028923034668,0.438931240453256
10.367668024,0.111577749252319,-0.418124198913574,-0.290996551513672,0.52149442263382
10.375602595,0.268053293228149,-0.400736212730408,-0.580437660217285,0.75455281962397
10.38347613,0.399981290102005,-0.342729210853577,-0.761245727539063,0.925712375471159
10.391441218,0.475250691175461,-0.320057153701782,-0.986823081970215,1.14110455095387
10.399406306,0.407291561365128,-0.342589139938355,-1.17340183258057,1.28845861224425
10.407310358,0.263996690511704,-0.394030332565308,-1.29262542724609,1.37689311522202
10.415244929,0.112075507640839,-0.424049854278564,-1.44024562835693,1.50555194806685
10.423148981,-0.0359547734260559,-0.357819676399231,-1.47273063659668,1.51600237286128
10.431114069,-0.121311157941818,-0.244807481765747,-1.4954080581665,1.52016195209556
10.439079157,-0.129936128854752,-0.11249053478241,-1.55581569671631,1.56527952779887
10.44698321,-0.153998821973801,-0.000716447830200195,-1.64380645751953,1.6510044882585
10.45491778,-0.112336724996567,0.116866827011108,-1.94128370285034,1.94803999188696
10.462760798,0.0633677542209625,0.237464427947998,-2.15355396270752,2.16753304406391
10.470695368,0.30201318860054,0.424875140190125,-2.23296594619751,2.29300409239015
10.478660456,0.584155797958374,0.559034109115601,-2.11705923080444,2.26620760703369
10.486503474,0.827694594860077,0.592775106430054,-1.74222850799561,2.0178753289627
10.494438044,0.977897047996521,0.598798751831055,-1.30547142028809,1.73755523965822
10.502311579,0.945362567901611,0.592059135437012,-0.819560050964356,1.38416873313215
10.510215632,0.709874153137207,0.55262041091919,-0.415283203125,0.990843464253825
10.518211237,0.249768376350403,0.577632188796997,0.142753601074219,0.645307506525984
10.52611529,-0.241941660642624,0.624382495880127,0.687998771667481,0.960068527831201
10.534080378,-0.522138118743897,0.694128751754761,1.0255651473999,1.34395937833679
10.541953913,-0.748518288135529,0.748083353042603,1.43953323364258,1.78666288413183
10.549919001,-0.823397755622864,0.768035173416138,1.49251842498779,1.86961844783827
10.557884089,-0.716902375221252,0.776611566543579,1.16334247589111,1.57176342275153
10.565788142,-0.425158709287643,0.82160234451294,0.735439300537109,1.18180425848226
10.573722712,-0.0541492104530335,0.836608409881592,0.348566055297852,0.907933953205407
10.581626765,0.181687295436859,0.813387870788574,-0.157990455627441,0.848275359620034
10.589530817,0.300955414772034,0.72512698173523,-0.414283752441406,0.887701711645293
10.597465388,0.563862919807434,0.710256338119507,-0.25909423828125,0.943151781254342
10.605338923,0.736874461174011,0.740914344787598,0.172079086303711,1.05903222320458
10.613304011,0.912167191505432,0.852785587310791,0.620261192321777,1.39427981047003
10.621177546,0.897529482841492,0.867704391479492,0.880876541137695,1.52787877931766
10.629142634,0.631739854812622,0.784800291061401,0.979207038879395,1.40493884777939
10.637077204,0.218894451856613,0.631153345108032,0.949590682983398,1.16103048681055
10.644950739,-0.0788696855306625,0.4851233959198,0.968987464904785,1.08650901685493
10.652854792,-0.35640686750412,0.290692090988159,1.19822978973389,1.28346498821467
10.660758845,-0.511115789413452,0.110026121139526,1.47921657562256,1.56889348749916
10.668723933,-0.505541503429413,0.00954866409301758,1.82875156402588,1.89736545546785
10.676658503,-0.286087393760681,0.0519540309906006,2.20108032226563,2.22020264914487
10.684532038,0.0233061611652374,0.0430653095245361,2.43179893493652,2.43229189407668
10.692466608,0.275566101074219,-0.151211738586426,2.37567520141602,2.39637942082856
10.700370661,0.461731821298599,-0.40665602684021,2.218017578125,2.30177483169764
10.708305231,0.637848734855652,-0.709955453872681,2.03019237518311,2.24333876962267
10.716239802,0.785106360912323,-0.886277198791504,1.80019760131836,2.15466718423869
10.724143855,0.780249118804932,-0.938160181045532,1.43142127990723,1.88093064552272
10.732078425,0.576992809772492,-0.992337942123413,1.150315284729,1.62507862830943
10.739921442,0.263730347156525,-1.00610589981079,0.798182487487793,1.31106752723786
10.747856013,-0.0417467728257179,-1.03217911720276,0.469962120056152,1.13490128086918
10.755821101,-0.361405223608017,-1.10018277168274,0.234561920166016,1.18153931849543
10.763694636,-0.533801317214966,-1.13552665710449,0.2408447265625,1.27764267992593
10.771629206,-0.603671967983246,-1.19468975067139,0.442315101623535,1.40973263224353
10.779533259,-0.694345414638519,-1.36308598518372,0.767716407775879,1.71158039267868
10.787437312,-0.729394018650055,-1.51750683784485,0.982847213745117,1.94957207687094
10.795402399,-0.751012265682221,-1.626624584198,1.28578567504883,2.20526002169432
10.803275935,-0.721800029277802,-1.66236329078674,1.55077266693115,2.38523434012709
10.811241023,-0.70661985874176,-1.5461288690567,1.81236553192139,2.48485309943978
10.819114558,-0.808889806270599,-1.39513516426086,1.79691696166992,2.41445965225819
10.827079646,-1.01543796062469,-1.29584765434265,1.52365398406982,2.24318007710367
10.835014216,-1.18015694618225,-1.14059138298035,0.968639373779297,1.90577578875029
10.842918269,-1.18174648284912,-0.974987745285034,0.42872142791748,1.59088903319429
10.850883356,-1.10073053836823,-0.772801876068115,-0.202360153198242,1.36006620770947
10.858787409,-1.091801404953,-0.654110908508301,-0.780176162719727,1.49283831454146
10.866660944,-1.10542476177216,-0.579847574234009,-1.32264280319214,1.81867289475597
10.874564997,-1.11367058753967,-0.54493260383606,-1.64726686477661,2.06172302797089
10.88246905,-1.08935523033142,-0.478241443634033,-1.8088493347168,2.16502785477808
10.89040362,-1.12978851795197,-0.467841863632202,-1.79154062271118,2.16908181207794
10.898246638,-1.20952272415161,-0.508993625640869,-1.5969443321228,2.06694241116711
10.906211726,-1.2501106262207,-0.61711049079895,-1.17102527618408,1.82068726944142
10.914115778,-1.256871342659,-0.704047203063965,-0.724191665649414,1.61240863453893
10.921958796,-1.16459476947784,-0.732580423355103,-0.212008476257324,1.39208571854726
10.929893366,-1.04625236988068,-0.746530294418335,0.0625982284545898,1.28680613931194
10.937797419,-0.775853574275971,-0.796103477478027,0.362175941467285,1.16914538366583
10.945731989,-0.492047369480133,-0.827277421951294,0.532175064086914,1.09986764909175
10.953697077,-0.24111145734787,-0.825649976730347,0.384906768798828,0.942330005680807
10.961570612,0.0274467021226883,-0.778874397277832,0.0613908767700195,0.781772017881754
10.969474665,0.143170207738876,-0.717434883117676,-0.345291137695313,0.808972490056979
10.9773482,0.182598680257797,-0.611326456069946,-0.873893737792969,1.08201320642435
10.985221735,0.149576127529144,-0.514921188354492,-1.35704708099365,1.45914140102199
10.993156306,0.0257349982857704,-0.389984846115112,-1.82259368896484,1.8640274207722
11.001029841,-0.133860558271408,-0.332121133804321,-2.13009977340698,2.15998799562606
11.008964411,-0.338075995445251,-0.291620016098022,-2.24423885345459,2.28821888022988
11.016868464,-0.486396461725235,-0.239754676818848,-2.22564315795898,2.29075343273888
11.024833552,-0.682841062545776,-0.146844148635864,-2.13849353790283,2.24966435993003
11.032768122,-0.840117394924164,-0.0884971618652344,-2.12360239028931,2.28545752464464
11.040672175,-0.949209272861481,-0.0928506851196289,-2.15405797958374,2.35575577529204
11.048637263,-0.958181083202362,-0.037104606628418,-2.19577789306641,2.39602343388354
11.056541315,-0.999523818492889,0.0425357818603516,-2.28934001922607,2.49838645531533
11.064475886,-0.988791763782501,0.116841077804565,-2.43453931808472,2.63027425963283
11.072410456,-0.880295515060425,0.163928985595703,-2.52108287811279,2.67537881139614
11.080283991,-0.691845953464508,0.262546062469482,-2.56161499023438,2.66635568078171
11.088218562,-0.443138390779495,0.353613376617432,-2.60906648635864,2.6699516819121
11.096092097,-0.282909452915192,0.383050918579102,-2.60874080657959,2.65184734867726
11.103996149,-0.157040730118752,0.409063816070557,-2.54896831512451,2.58635544116487
11.11193072,-0.150889620184898,0.408391237258911,-2.39172792434692,2.43103137459191
11.119773737,-0.281851947307587,0.371695518493652,-2.17549324035645,2.22494245262792
11.127708308,-0.55419385433197,0.254076957702637,-1.83593940734863,1.93451788207564
11.135581843,-0.745521783828735,0.272608518600464,-1.46133995056152,1.66301911765436
11.143516413,-0.733054637908936,0.345312833786011,-1.0825834274292,1.35225623780461
11.151450983,-0.714528739452362,0.3943030834198,-0.684779167175293,1.06533973402621
11.159324519,-0.710258543491364,0.356846809387207,-0.630745887756348,1.01471533884821
11.167259089,-0.672525465488434,0.287213802337647,-0.707070350646973,1.01721716007336
11.175132624,-0.489588677883148,0.182852506637573,-0.628672599792481,0.817533699871051
11.18312823,-0.290992468595505,0.130363941192627,-0.51045036315918,0.601856251269287
11.1910628,0.0333143770694733,0.155154943466187,-0.302738189697266,0.341808887688281
11.198966853,0.256966412067413,0.169203519821167,-0.0178680419921875,0.308189608804882
11.206870905,0.319443970918655,0.158331394195557,0.473196983337402,0.592476721891928
11.21474444,0.243025302886963,0.112110376358032,0.737078666687012,0.784165158123939
11.222709528,0.0445883274078369,0.0380904674530029,1.04891777038574,1.05055580131796
11.230644099,-0.210196852684021,-0.0186042785644531,1.27478885650635,1.29213600860433
11.238487116,-0.411451697349548,-0.0419647693634033,1.34073543548584,1.40307699328546
11.246421687,-0.550420463085175,-0.0407302379608154,1.36648654937744,1.47373916555702
11.254325739,-0.572670638561249,-0.00235438346862793,1.36877250671387,1.48374370378695
11.262290827,-0.47063809633255,0.0861029624938965,1.31146049499512,1.39600951565618
11.270286433,-0.302332997322083,0.154903888702393,1.36156749725342,1.40330556386762
11.278159968,-0.0327208936214447,0.301688671112061,1.64286231994629,1.67065355877754
11.286064021,0.272840946912766,0.400519132614136,2.22194766998291,2.27418319535712
11.293998591,0.430528879165649,0.449609041213989,2.71776485443115,2.78814440259435
11.301902644,0.60811311006546,0.476806163787842,3.0115966796875,3.10915747969837
11.309867731,0.637650012969971,0.425220727920532,3.16394519805908,3.25545072498648
11.317741267,0.442810475826263,0.317039251327515,3.21144962310791,3.2573000608086
11.325706355,0.328021585941315,0.239243030548096,3.15718746185303,3.18318520632891
11.333549372,0.326151311397553,0.227058172225952,3.12031173706055,3.14551671875047
11.341483942,0.35150933265686,0.162234544754028,2.83213424682617,2.85847218816312
11.349418513,0.293574452400208,0.0492448806762695,2.54333782196045,2.56069879017221
11.357292048,0.117200076580048,-0.212813138961792,2.23399066925049,2.24716256651881
11.365226618,-0.0157959461212158,-0.461438655853272,1.98466682434082,2.03766472921053
11.373130671,-0.0490721464157105,-0.682100534439087,1.86142253875732,1.98306910682147
11.381034724,-0.044228732585907,-0.812275648117065,1.87429332733154,2.04321398443474
11.388999812,0.157818198204041,-0.938373327255249,2.02438640594482,2.23687089604265
11.396873347,0.427583456039429,-1.02639770507813,2.22872066497803,2.49068578174132
11.404838435,0.737793147563934,-1.14299154281616,2.37565326690674,2.73760786821382
